ready2_2.keys,ready2_2.rt,ready2.keys,ready2.rt,key_resp.keys,key_resp.rt,key_resp_3.keys,key_resp_3.rt,key_resp_2.keys,key_resp_2.rt,ready3.keys,ready3.rt,resp.keys,resp.rt,withinBlock.thisRepN,withinBlock.thisTrialN,withinBlock.thisN,withinBlock.thisIndex,withinBlock.ran,word,Azonosító,Az Ön neme,Születési éve,Hány évet töltött az iskolapadban (egyetemet is beleértve),date,expName,psychopyVersion,OS,frameRate
N/A,4.625715,space,26.241315,right,30.073105,left,1.46101,right,1.0893,space,10.523595,right,2.147555,0,0,0,228,1,tarol,M2AZ9A,Nő,1998,14,2021-05-13_08h08.37.757,ranlexdec,2020.2.5,Win32,60
,,,,,,,,,,,,right,1.269025,0,1,1,62,1,bizmut,M2AZ9A,Nő,1998,14,2021-05-13_08h08.37.757,ranlexdec,2020.2.5,Win32,60
,,,,,,,,,,,,right,1.1648,0,2,2,239,1,donhuán,M2AZ9A,Nő,1998,14,2021-05-13_08h08.37.757,ranlexdec,2020.2.5,Win32,60
,,,,,,,,,,,,left,2.863955,0,3,3,121,1,aggófű,M2AZ9A,Nő,1998,14,2021-05-13_08h08.37.757,ranlexdec,2020.2.5,Win32,60
,,,,,,,,,,,,right,0.715405,0,4,4,67,1,szegény,M2AZ9A,Nő,1998,14,2021-05-13_08h08.37.757,ranlexdec,2020.2.5,Win32,60
,,,,,,,,,,,,right,0.87549,0,5,5,232,1,tropikus,M2AZ9A,Nő,1998,14,2021-05-13_08h08.37.757,ranlexdec,2020.2.5,Win32,60
,,,,,,,,,,,,left,2.27658,0,6,6,155,1,megpadék,M2AZ9A,Nő,1998,14,2021-05-13_08h08.37.757,ranlexdec,2020.2.5,Win32,60
,,,,,,,,,,,,right,1.444725,0,7,7,27,1,sporthorgász,M2AZ9A,Nő,1998,14,2021-05-13_08h08.37.757,ranlexdec,2020.2.5,Win32,60
,,,,,,,,,,,,right,1.27804,0,8,8,111,1,koenzim,M2AZ9A,Nő,1998,14,2021-05-13_08h08.37.757,ranlexdec,2020.2.5,Win32,60
,,,,,,,,,,,,right,0.84924,0,9,9,206,1,horizont,M2AZ9A,Nő,1998,14,2021-05-13_08h08.37.757,ranlexdec,2020.2.5,Win32,60
,,,,,,,,,,,,left,2.953045,0,10,10,42,1,összalaj,M2AZ9A,Nő,1998,14,2021-05-13_08h08.37.757,ranlexdec,2020.2.5,Win32,60
,,,,,,,,,,,,left,3.43983,0,11,11,76,1,jegedény,M2AZ9A,Nő,1998,14,2021-05-13_08h08.37.757,ranlexdec,2020.2.5,Win32,60
,,,,,,,,,,,,right,1.46916,0,12,12,223,1,árstop,M2AZ9A,Nő,1998,14,2021-05-13_08h08.37.757,ranlexdec,2020.2.5,Win32,60
,,,,,,,,,,,,right,1.596535,0,13,13,1,1,csapdáz,M2AZ9A,Nő,1998,14,2021-05-13_08h08.37.757,ranlexdec,2020.2.5,Win32,60
,,,,,,,,,,,,right,0.71198,0,14,14,135,1,ion,M2AZ9A,Nő,1998,14,2021-05-13_08h08.37.757,ranlexdec,2020.2.5,Win32,60
,,,,,,,,,,,,right,1.24491,0,15,15,211,1,tábornagy,M2AZ9A,Nő,1998,14,2021-05-13_08h08.37.757,ranlexdec,2020.2.5,Win32,60
,,,,,,,,,,,,right,1.71624,0,16,16,60,1,bárányfark,M2AZ9A,Nő,1998,14,2021-05-13_08h08.37.757,ranlexdec,2020.2.5,Win32,60
,,,,,,,,,,,,right,0.731455,0,17,17,200,1,biliárd,M2AZ9A,Nő,1998,14,2021-05-13_08h08.37.757,ranlexdec,2020.2.5,Win32,60
,,,,,,,,,,,,right,0.969025,0,18,18,63,1,viszkózus,M2AZ9A,Nő,1998,14,2021-05-13_08h08.37.757,ranlexdec,2020.2.5,Win32,60
,,,,,,,,,,,,right,0.59715,0,19,19,208,1,lélek,M2AZ9A,Nő,1998,14,2021-05-13_08h08.37.757,ranlexdec,2020.2.5,Win32,60
,,,,,,,,,,,,right,0.83859,0,20,20,115,1,fajansz,M2AZ9A,Nő,1998,14,2021-05-13_08h08.37.757,ranlexdec,2020.2.5,Win32,60
,,,,,,,,,,,,right,1.31434,0,21,21,17,1,magmatit,M2AZ9A,Nő,1998,14,2021-05-13_08h08.37.757,ranlexdec,2020.2.5,Win32,60
,,,,,,,,,,,,left,1.718645,0,22,22,217,1,ifjít,M2AZ9A,Nő,1998,14,2021-05-13_08h08.37.757,ranlexdec,2020.2.5,Win32,60
,,,,,,,,,,,,right,2.19508,0,23,23,113,1,piktogram,M2AZ9A,Nő,1998,14,2021-05-13_08h08.37.757,ranlexdec,2020.2.5,Win32,60
,,,,,,,,,,,,right,0.568765,0,24,24,86,1,jármű,M2AZ9A,Nő,1998,14,2021-05-13_08h08.37.757,ranlexdec,2020.2.5,Win32,60
,,,,,,,,,,,,right,1.465265,0,25,25,119,1,cugehőr,M2AZ9A,Nő,1998,14,2021-05-13_08h08.37.757,ranlexdec,2020.2.5,Win32,60
,,,,,,,,,,,,right,1.059955,0,26,26,145,1,kurtít,M2AZ9A,Nő,1998,14,2021-05-13_08h08.37.757,ranlexdec,2020.2.5,Win32,60
,,,,,,,,,,,,right,0.78154,0,27,27,240,1,áradmány,M2AZ9A,Nő,1998,14,2021-05-13_08h08.37.757,ranlexdec,2020.2.5,Win32,60
,,,,,,,,,,,,right,0.596175,0,28,28,129,1,turné,M2AZ9A,Nő,1998,14,2021-05-13_08h08.37.757,ranlexdec,2020.2.5,Win32,60
,,,,,,,,,,,,right,0.84394,0,29,29,53,1,puritán,M2AZ9A,Nő,1998,14,2021-05-13_08h08.37.757,ranlexdec,2020.2.5,Win32,60
,,,,,,,,,,,,right,1.01521,0,30,30,146,1,kondenzcsík,M2AZ9A,Nő,1998,14,2021-05-13_08h08.37.757,ranlexdec,2020.2.5,Win32,60
,,,,,,,,,,,,right,0.533465,0,31,31,218,1,tortya,M2AZ9A,Nő,1998,14,2021-05-13_08h08.37.757,ranlexdec,2020.2.5,Win32,60
,,,,,,,,,,,,right,0.946835,0,32,32,213,1,eszköz,M2AZ9A,Nő,1998,14,2021-05-13_08h08.37.757,ranlexdec,2020.2.5,Win32,60
,,,,,,,,,,,,right,0.81226,0,33,33,74,1,püffeszt,M2AZ9A,Nő,1998,14,2021-05-13_08h08.37.757,ranlexdec,2020.2.5,Win32,60
,,,,,,,,,,,,right,0.88647,0,34,34,171,1,újgazdag,M2AZ9A,Nő,1998,14,2021-05-13_08h08.37.757,ranlexdec,2020.2.5,Win32,60
,,,,,,,,,,,,right,0.863195,0,35,35,22,1,arzénsav,M2AZ9A,Nő,1998,14,2021-05-13_08h08.37.757,ranlexdec,2020.2.5,Win32,60
,,,,,,,,,,,,right,0.90289,0,36,36,214,1,tenger,M2AZ9A,Nő,1998,14,2021-05-13_08h08.37.757,ranlexdec,2020.2.5,Win32,60
,,,,,,,,,,,,right,0.632925,0,37,37,241,1,kárpit,M2AZ9A,Nő,1998,14,2021-05-13_08h08.37.757,ranlexdec,2020.2.5,Win32,60
,,,,,,,,,,,,left,1.82841,0,38,38,16,1,cséltás,M2AZ9A,Nő,1998,14,2021-05-13_08h08.37.757,ranlexdec,2020.2.5,Win32,60
,,,,,,,,,,,,right,1.078345,0,39,39,220,1,csontdarab,M2AZ9A,Nő,1998,14,2021-05-13_08h08.37.757,ranlexdec,2020.2.5,Win32,60
,,,,,,,,,,,,right,0.84225,0,40,40,123,1,luftballon,M2AZ9A,Nő,1998,14,2021-05-13_08h08.37.757,ranlexdec,2020.2.5,Win32,60
,,,,,,,,,,,,right,0.531775,0,41,41,170,1,változik,M2AZ9A,Nő,1998,14,2021-05-13_08h08.37.757,ranlexdec,2020.2.5,Win32,60
,,,,,,,,,,,,right,0.41211,0,42,42,176,1,bélyeg,M2AZ9A,Nő,1998,14,2021-05-13_08h08.37.757,ranlexdec,2020.2.5,Win32,60
,,,,,,,,,,,,right,0.447945,0,43,43,175,1,szilikát,M2AZ9A,Nő,1998,14,2021-05-13_08h08.37.757,ranlexdec,2020.2.5,Win32,60
,,,,,,,,,,,,left,1.104135,0,44,44,50,1,csenyei,M2AZ9A,Nő,1998,14,2021-05-13_08h08.37.757,ranlexdec,2020.2.5,Win32,60
,,,,,,,,,,,,right,0.69734,0,45,45,202,1,abszint,M2AZ9A,Nő,1998,14,2021-05-13_08h08.37.757,ranlexdec,2020.2.5,Win32,60
,,,,,,,,,,,,left,0.932635,0,46,46,49,1,ernyak,M2AZ9A,Nő,1998,14,2021-05-13_08h08.37.757,ranlexdec,2020.2.5,Win32,60
,,,,,,,,,,,,left,1.52851,0,47,47,229,1,lemesség,M2AZ9A,Nő,1998,14,2021-05-13_08h08.37.757,ranlexdec,2020.2.5,Win32,60
,,,,,,,,,,,,right,0.833195,0,48,48,59,1,ómagyar,M2AZ9A,Nő,1998,14,2021-05-13_08h08.37.757,ranlexdec,2020.2.5,Win32,60
,,,,,,,,,,,,right,0.5323,0,49,49,227,1,kötődik,M2AZ9A,Nő,1998,14,2021-05-13_08h08.37.757,ranlexdec,2020.2.5,Win32,60
,,,,,,,,,,,,right,0.544745,0,50,50,116,1,árus,M2AZ9A,Nő,1998,14,2021-05-13_08h08.37.757,ranlexdec,2020.2.5,Win32,60
,,,,,,,,,,,,right,0.73554,0,51,51,11,1,viszkóz,M2AZ9A,Nő,1998,14,2021-05-13_08h08.37.757,ranlexdec,2020.2.5,Win32,60
,,,,,,,,,,,,right,0.935025,0,52,52,8,1,kulcscsont,M2AZ9A,Nő,1998,14,2021-05-13_08h08.37.757,ranlexdec,2020.2.5,Win32,60
,,,,,,,,,,,,left,1.511805,0,53,53,117,1,ószeven,M2AZ9A,Nő,1998,14,2021-05-13_08h08.37.757,ranlexdec,2020.2.5,Win32,60
,,,,,,,,,,,,right,0.639655,0,54,54,152,1,rakódik,M2AZ9A,Nő,1998,14,2021-05-13_08h08.37.757,ranlexdec,2020.2.5,Win32,60
,,,,,,,,,,,,right,2.42773,0,55,55,4,1,viszonvád,M2AZ9A,Nő,1998,14,2021-05-13_08h08.37.757,ranlexdec,2020.2.5,Win32,60
,,,,,,,,,,,,right,0.58047,0,56,56,25,1,reform,M2AZ9A,Nő,1998,14,2021-05-13_08h08.37.757,ranlexdec,2020.2.5,Win32,60
,,,,,,,,,,,,right,0.595095,0,57,57,136,1,rücsök,M2AZ9A,Nő,1998,14,2021-05-13_08h08.37.757,ranlexdec,2020.2.5,Win32,60
,,,,,,,,,,,,left,1.8597,0,58,58,112,1,méhezter,M2AZ9A,Nő,1998,14,2021-05-13_08h08.37.757,ranlexdec,2020.2.5,Win32,60
,,,,,,,,,,,,right,1.308545,0,59,59,243,1,dipeptid,M2AZ9A,Nő,1998,14,2021-05-13_08h08.37.757,ranlexdec,2020.2.5,Win32,60
,,,,,,,,,,,,right,0.761745,0,60,60,84,1,kúpol,M2AZ9A,Nő,1998,14,2021-05-13_08h08.37.757,ranlexdec,2020.2.5,Win32,60
,,,,,,,,,,,,left,0.894755,0,61,61,225,1,bajadér,M2AZ9A,Nő,1998,14,2021-05-13_08h08.37.757,ranlexdec,2020.2.5,Win32,60
,,,,,,,,,,,,right,0.59454,0,62,62,139,1,vároló,M2AZ9A,Nő,1998,14,2021-05-13_08h08.37.757,ranlexdec,2020.2.5,Win32,60
,,,,,,,,,,,,right,0.604035,0,63,63,126,1,rejtőzik,M2AZ9A,Nő,1998,14,2021-05-13_08h08.37.757,ranlexdec,2020.2.5,Win32,60
,,,,,,,,,,,,left,1.61841,0,64,64,197,1,krakéler,M2AZ9A,Nő,1998,14,2021-05-13_08h08.37.757,ranlexdec,2020.2.5,Win32,60
,,,,,,,,,,,,right,0.86411,0,65,65,215,1,neoprén,M2AZ9A,Nő,1998,14,2021-05-13_08h08.37.757,ranlexdec,2020.2.5,Win32,60
,,,,,,,,,,,,right,1.09531,0,66,66,96,1,alfél,M2AZ9A,Nő,1998,14,2021-05-13_08h08.37.757,ranlexdec,2020.2.5,Win32,60
,,,,,,,,,,,,right,0.516415,0,67,67,169,1,komoly,M2AZ9A,Nő,1998,14,2021-05-13_08h08.37.757,ranlexdec,2020.2.5,Win32,60
,,,,,,,,,,,,right,0.61955,0,68,68,92,1,lágyék,M2AZ9A,Nő,1998,14,2021-05-13_08h08.37.757,ranlexdec,2020.2.5,Win32,60
,,,,,,,,,,,,right,0.62237,0,69,69,32,1,genom,M2AZ9A,Nő,1998,14,2021-05-13_08h08.37.757,ranlexdec,2020.2.5,Win32,60
,,,,,,,,,,,,right,1.20119,0,70,70,65,1,infimum,M2AZ9A,Nő,1998,14,2021-05-13_08h08.37.757,ranlexdec,2020.2.5,Win32,60
,,,,,,,,,,,,right,1.26404,0,71,71,38,1,zomogyi,M2AZ9A,Nő,1998,14,2021-05-13_08h08.37.757,ranlexdec,2020.2.5,Win32,60
,,,,,,,,,,,,left,1.866355,0,72,72,204,1,kocskesi,M2AZ9A,Nő,1998,14,2021-05-13_08h08.37.757,ranlexdec,2020.2.5,Win32,60
,,,,,,,,,,,,left,0.89014,0,73,73,190,1,rámáz,M2AZ9A,Nő,1998,14,2021-05-13_08h08.37.757,ranlexdec,2020.2.5,Win32,60
,,,,,,,,,,,,right,1.484605,0,74,74,242,1,rekvizit,M2AZ9A,Nő,1998,14,2021-05-13_08h08.37.757,ranlexdec,2020.2.5,Win32,60
,,,,,,,,,,,,right,1.063445,0,75,75,70,1,lakotthely,M2AZ9A,Nő,1998,14,2021-05-13_08h08.37.757,ranlexdec,2020.2.5,Win32,60
,,,,,,,,,,,,right,0.612575,0,76,76,31,1,iszlám,M2AZ9A,Nő,1998,14,2021-05-13_08h08.37.757,ranlexdec,2020.2.5,Win32,60
,,,,,,,,,,,,left,1.4292,0,77,77,167,1,vabank,M2AZ9A,Nő,1998,14,2021-05-13_08h08.37.757,ranlexdec,2020.2.5,Win32,60
,,,,,,,,,,,,right,0.64122,0,78,78,130,1,derít,M2AZ9A,Nő,1998,14,2021-05-13_08h08.37.757,ranlexdec,2020.2.5,Win32,60
,,,,,,,,,,,,right,0.69018,0,79,79,128,1,csüggedez,M2AZ9A,Nő,1998,14,2021-05-13_08h08.37.757,ranlexdec,2020.2.5,Win32,60
,,,,,,,,,,,,right,0.60085,0,80,80,79,1,extrém,M2AZ9A,Nő,1998,14,2021-05-13_08h08.37.757,ranlexdec,2020.2.5,Win32,60
,,,,,,,,,,,,right,0.590635,0,81,81,61,1,régész,M2AZ9A,Nő,1998,14,2021-05-13_08h08.37.757,ranlexdec,2020.2.5,Win32,60
,,,,,,,,,,,,right,0.73039,0,82,82,158,1,hidroxid,M2AZ9A,Nő,1998,14,2021-05-13_08h08.37.757,ranlexdec,2020.2.5,Win32,60
,,,,,,,,,,,,right,0.452265,0,83,83,54,1,fürkész,M2AZ9A,Nő,1998,14,2021-05-13_08h08.37.757,ranlexdec,2020.2.5,Win32,60
,,,,,,,,,,,,left,1.803595,0,84,84,66,1,parkkói,M2AZ9A,Nő,1998,14,2021-05-13_08h08.37.757,ranlexdec,2020.2.5,Win32,60
,,,,,,,,,,,,right,0.69404,0,85,85,80,1,darab,M2AZ9A,Nő,1998,14,2021-05-13_08h08.37.757,ranlexdec,2020.2.5,Win32,60
,,,,,,,,,,,,left,2.15342,0,86,86,131,1,vetézmés,M2AZ9A,Nő,1998,14,2021-05-13_08h08.37.757,ranlexdec,2020.2.5,Win32,60
,,,,,,,,,,,,right,0.65505,0,87,87,246,1,beton,M2AZ9A,Nő,1998,14,2021-05-13_08h08.37.757,ranlexdec,2020.2.5,Win32,60
,,,,,,,,,,,,right,0.467985,0,88,88,73,1,olaj,M2AZ9A,Nő,1998,14,2021-05-13_08h08.37.757,ranlexdec,2020.2.5,Win32,60
,,,,,,,,,,,,left,0.86033,0,89,89,52,1,kunyai,M2AZ9A,Nő,1998,14,2021-05-13_08h08.37.757,ranlexdec,2020.2.5,Win32,60
,,,,,,,,,,,,right,0.583585,0,90,90,199,1,ború,M2AZ9A,Nő,1998,14,2021-05-13_08h08.37.757,ranlexdec,2020.2.5,Win32,60
,,,,,,,,,,,,left,1.0846,0,91,91,29,1,novagár,M2AZ9A,Nő,1998,14,2021-05-13_08h08.37.757,ranlexdec,2020.2.5,Win32,60
,,,,,,,,,,,,left,1.08499,0,92,92,107,1,kelől,M2AZ9A,Nő,1998,14,2021-05-13_08h08.37.757,ranlexdec,2020.2.5,Win32,60
,,,,,,,,,,,,right,1.02534,0,93,93,95,1,skubizik,M2AZ9A,Nő,1998,14,2021-05-13_08h08.37.757,ranlexdec,2020.2.5,Win32,60
,,,,,,,,,,,,right,0.534945,0,94,94,188,1,sugár,M2AZ9A,Nő,1998,14,2021-05-13_08h08.37.757,ranlexdec,2020.2.5,Win32,60
,,,,,,,,,,,,right,0.8844,0,95,95,226,1,szalicil,M2AZ9A,Nő,1998,14,2021-05-13_08h08.37.757,ranlexdec,2020.2.5,Win32,60
,,,,,,,,,,,,right,0.568005,0,96,96,104,1,dolog,M2AZ9A,Nő,1998,14,2021-05-13_08h08.37.757,ranlexdec,2020.2.5,Win32,60
,,,,,,,,,,,,left,1.912435,0,97,97,219,1,szimboló,M2AZ9A,Nő,1998,14,2021-05-13_08h08.37.757,ranlexdec,2020.2.5,Win32,60
,,,,,,,,,,,,right,1.285435,0,98,98,162,1,nimbus,M2AZ9A,Nő,1998,14,2021-05-13_08h08.37.757,ranlexdec,2020.2.5,Win32,60
,,,,,,,,,,,,left,0.945175,0,99,99,36,1,tröshet,M2AZ9A,Nő,1998,14,2021-05-13_08h08.37.757,ranlexdec,2020.2.5,Win32,60
,,,,,,,,,,,,right,0.623855,0,100,100,58,1,barát,M2AZ9A,Nő,1998,14,2021-05-13_08h08.37.757,ranlexdec,2020.2.5,Win32,60
,,,,,,,,,,,,left,1.09359,0,101,101,108,1,konyrúd,M2AZ9A,Nő,1998,14,2021-05-13_08h08.37.757,ranlexdec,2020.2.5,Win32,60
,,,,,,,,,,,,right,1.48392,0,102,102,209,1,hidegház,M2AZ9A,Nő,1998,14,2021-05-13_08h08.37.757,ranlexdec,2020.2.5,Win32,60
,,,,,,,,,,,,left,1.38835,0,103,103,137,1,aragas,M2AZ9A,Nő,1998,14,2021-05-13_08h08.37.757,ranlexdec,2020.2.5,Win32,60
,,,,,,,,,,,,right,0.66265,0,104,104,245,1,ellenfél,M2AZ9A,Nő,1998,14,2021-05-13_08h08.37.757,ranlexdec,2020.2.5,Win32,60
,,,,,,,,,,,,right,1.55654,0,105,105,161,1,példakép,M2AZ9A,Nő,1998,14,2021-05-13_08h08.37.757,ranlexdec,2020.2.5,Win32,60
,,,,,,,,,,,,right,0.55867,0,106,106,160,1,százalék,M2AZ9A,Nő,1998,14,2021-05-13_08h08.37.757,ranlexdec,2020.2.5,Win32,60
,,,,,,,,,,,,right,0.56977,0,107,107,165,1,lépték,M2AZ9A,Nő,1998,14,2021-05-13_08h08.37.757,ranlexdec,2020.2.5,Win32,60
,,,,,,,,,,,,right,1.017435,0,108,108,156,1,lazúroz,M2AZ9A,Nő,1998,14,2021-05-13_08h08.37.757,ranlexdec,2020.2.5,Win32,60
,,,,,,,,,,,,right,0.74087,0,109,109,101,1,nukleon,M2AZ9A,Nő,1998,14,2021-05-13_08h08.37.757,ranlexdec,2020.2.5,Win32,60
,,,,,,,,,,,,right,0.79378,0,110,110,13,1,törköly,M2AZ9A,Nő,1998,14,2021-05-13_08h08.37.757,ranlexdec,2020.2.5,Win32,60
,,,,,,,,,,,,left,1.33707,0,111,111,35,1,türemlik,M2AZ9A,Nő,1998,14,2021-05-13_08h08.37.757,ranlexdec,2020.2.5,Win32,60
,,,,,,,,,,,,right,0.821885,0,112,112,174,1,cianid,M2AZ9A,Nő,1998,14,2021-05-13_08h08.37.757,ranlexdec,2020.2.5,Win32,60
,,,,,,,,,,,,right,0.55044,0,113,113,0,1,irány,M2AZ9A,Nő,1998,14,2021-05-13_08h08.37.757,ranlexdec,2020.2.5,Win32,60
,,,,,,,,,,,,right,0.67459,0,114,114,98,1,mítosz,M2AZ9A,Nő,1998,14,2021-05-13_08h08.37.757,ranlexdec,2020.2.5,Win32,60
,,,,,,,,,,,,right,1.1696,0,115,115,189,1,konverzál,M2AZ9A,Nő,1998,14,2021-05-13_08h08.37.757,ranlexdec,2020.2.5,Win32,60
,,,,,,,,,,,,left,1.6296,0,116,116,47,1,döföl,M2AZ9A,Nő,1998,14,2021-05-13_08h08.37.757,ranlexdec,2020.2.5,Win32,60
,,,,,,,,,,,,right,0.82065,0,117,117,237,1,forgórész,M2AZ9A,Nő,1998,14,2021-05-13_08h08.37.757,ranlexdec,2020.2.5,Win32,60
,,,,,,,,,,,,right,0.534715,0,118,118,196,1,dolgozik,M2AZ9A,Nő,1998,14,2021-05-13_08h08.37.757,ranlexdec,2020.2.5,Win32,60
,,,,,,,,,,,,right,0.65152,0,119,119,34,1,csengettyű,M2AZ9A,Nő,1998,14,2021-05-13_08h08.37.757,ranlexdec,2020.2.5,Win32,60
,,,,,,,,,,,,right,0.417595,0,120,120,103,1,szabotró,M2AZ9A,Nő,1998,14,2021-05-13_08h08.37.757,ranlexdec,2020.2.5,Win32,60
,,,,,,,,,,,,right,1.05138,0,121,121,28,1,gazdag,M2AZ9A,Nő,1998,14,2021-05-13_08h08.37.757,ranlexdec,2020.2.5,Win32,60
,,,,,,,,,,,,left,1.31648,0,122,122,125,1,úszamos,M2AZ9A,Nő,1998,14,2021-05-13_08h08.37.757,ranlexdec,2020.2.5,Win32,60
,,,,,,,,,,,,left,1.77703,0,123,123,18,1,csapattest,M2AZ9A,Nő,1998,14,2021-05-13_08h08.37.757,ranlexdec,2020.2.5,Win32,60
,,,,,,,,,,,,right,0.71755,0,124,124,55,1,látszik,M2AZ9A,Nő,1998,14,2021-05-13_08h08.37.757,ranlexdec,2020.2.5,Win32,60
,,,,,,,,,,,,right,0.850485,0,125,125,19,1,tangózik,M2AZ9A,Nő,1998,14,2021-05-13_08h08.37.757,ranlexdec,2020.2.5,Win32,60
,,,,,,,,,,,,right,1.89078,0,126,126,235,1,transzplantál,M2AZ9A,Nő,1998,14,2021-05-13_08h08.37.757,ranlexdec,2020.2.5,Win32,60
,,,,,,,,,,,,right,0.55106,0,127,127,33,1,kalcium,M2AZ9A,Nő,1998,14,2021-05-13_08h08.37.757,ranlexdec,2020.2.5,Win32,60
,,,,,,,,,,,,right,0.58927,0,128,128,144,1,rövid,M2AZ9A,Nő,1998,14,2021-05-13_08h08.37.757,ranlexdec,2020.2.5,Win32,60
,,,,,,,,,,,,right,1.456395,0,129,129,118,1,libling,M2AZ9A,Nő,1998,14,2021-05-13_08h08.37.757,ranlexdec,2020.2.5,Win32,60
,,,,,,,,,,,,left,1.484415,0,130,130,191,1,hitódó,M2AZ9A,Nő,1998,14,2021-05-13_08h08.37.757,ranlexdec,2020.2.5,Win32,60
,,,,,,,,,,,,right,1.32271,0,131,131,150,1,orront,M2AZ9A,Nő,1998,14,2021-05-13_08h08.37.757,ranlexdec,2020.2.5,Win32,60
,,,,,,,,,,,,right,0.69082,0,132,132,182,1,nagyszámú,M2AZ9A,Nő,1998,14,2021-05-13_08h08.37.757,ranlexdec,2020.2.5,Win32,60
,,,,,,,,,,,,right,0.63615,0,133,133,43,1,közhely,M2AZ9A,Nő,1998,14,2021-05-13_08h08.37.757,ranlexdec,2020.2.5,Win32,60
,,,,,,,,,,,,left,0.97947,0,134,134,207,1,diffamál,M2AZ9A,Nő,1998,14,2021-05-13_08h08.37.757,ranlexdec,2020.2.5,Win32,60
,,,,,,,,,,,,left,1.875125,0,135,135,198,1,lublika,M2AZ9A,Nő,1998,14,2021-05-13_08h08.37.757,ranlexdec,2020.2.5,Win32,60
,,,,,,,,,,,,left,1.76168,0,136,136,83,1,vonzum,M2AZ9A,Nő,1998,14,2021-05-13_08h08.37.757,ranlexdec,2020.2.5,Win32,60
,,,,,,,,,,,,right,0.85761,0,137,137,78,1,törékeny,M2AZ9A,Nő,1998,14,2021-05-13_08h08.37.757,ranlexdec,2020.2.5,Win32,60
,,,,,,,,,,,,right,0.507485,0,138,138,71,1,extuál,M2AZ9A,Nő,1998,14,2021-05-13_08h08.37.757,ranlexdec,2020.2.5,Win32,60
,,,,,,,,,,,,right,0.63714,0,139,139,222,1,nyersarany,M2AZ9A,Nő,1998,14,2021-05-13_08h08.37.757,ranlexdec,2020.2.5,Win32,60
,,,,,,,,,,,,right,0.5016,0,140,140,88,1,pohár,M2AZ9A,Nő,1998,14,2021-05-13_08h08.37.757,ranlexdec,2020.2.5,Win32,60
,,,,,,,,,,,,right,0.45351,0,141,141,110,1,időszak,M2AZ9A,Nő,1998,14,2021-05-13_08h08.37.757,ranlexdec,2020.2.5,Win32,60
,,,,,,,,,,,,right,0.6679,0,142,142,21,1,heveny,M2AZ9A,Nő,1998,14,2021-05-13_08h08.37.757,ranlexdec,2020.2.5,Win32,60
,,,,,,,,,,,,right,0.77567,0,143,143,233,1,templomoz,M2AZ9A,Nő,1998,14,2021-05-13_08h08.37.757,ranlexdec,2020.2.5,Win32,60
,,,,,,,,,,,,right,0.59206,0,144,144,109,1,vényegő,M2AZ9A,Nő,1998,14,2021-05-13_08h08.37.757,ranlexdec,2020.2.5,Win32,60
,,,,,,,,,,,,right,1.63944,0,145,145,100,1,balközép,M2AZ9A,Nő,1998,14,2021-05-13_08h08.37.757,ranlexdec,2020.2.5,Win32,60
,,,,,,,,,,,,right,0.73949,0,146,146,120,1,komál,M2AZ9A,Nő,1998,14,2021-05-13_08h08.37.757,ranlexdec,2020.2.5,Win32,60
,,,,,,,,,,,,right,0.62925,0,147,147,45,1,népszerű,M2AZ9A,Nő,1998,14,2021-05-13_08h08.37.757,ranlexdec,2020.2.5,Win32,60
,,,,,,,,,,,,right,0.551385,0,148,148,105,1,tököl,M2AZ9A,Nő,1998,14,2021-05-13_08h08.37.757,ranlexdec,2020.2.5,Win32,60
,,,,,,,,,,,,left,1.12378,0,149,149,81,1,takorák,M2AZ9A,Nő,1998,14,2021-05-13_08h08.37.757,ranlexdec,2020.2.5,Win32,60
,,,,,,,,,,,,left,2.02424,0,150,150,212,1,farkasbab,M2AZ9A,Nő,1998,14,2021-05-13_08h08.37.757,ranlexdec,2020.2.5,Win32,60
,,,,,,,,,,,,left,1.57251,0,151,151,91,1,tajtásos,M2AZ9A,Nő,1998,14,2021-05-13_08h08.37.757,ranlexdec,2020.2.5,Win32,60
,,,,,,,,,,,,left,1.1009,0,152,152,23,1,szelégül,M2AZ9A,Nő,1998,14,2021-05-13_08h08.37.757,ranlexdec,2020.2.5,Win32,60
,,,,,,,,,,,,right,0.82586,0,153,153,221,1,törődik,M2AZ9A,Nő,1998,14,2021-05-13_08h08.37.757,ranlexdec,2020.2.5,Win32,60
,,,,,,,,,,,,right,0.74968,0,154,154,143,1,rojtoz,M2AZ9A,Nő,1998,14,2021-05-13_08h08.37.757,ranlexdec,2020.2.5,Win32,60
,,,,,,,,,,,,left,1.184835,0,155,155,142,1,storítő,M2AZ9A,Nő,1998,14,2021-05-13_08h08.37.757,ranlexdec,2020.2.5,Win32,60
,,,,,,,,,,,,left,0.940115,0,156,156,195,1,petél,M2AZ9A,Nő,1998,14,2021-05-13_08h08.37.757,ranlexdec,2020.2.5,Win32,60
,,,,,,,,,,,,left,1.878605,0,157,157,72,1,mihálóz,M2AZ9A,Nő,1998,14,2021-05-13_08h08.37.757,ranlexdec,2020.2.5,Win32,60
,,,,,,,,,,,,right,0.806705,0,158,158,56,1,kanalaz,M2AZ9A,Nő,1998,14,2021-05-13_08h08.37.757,ranlexdec,2020.2.5,Win32,60
,,,,,,,,,,,,right,0.85749,0,159,159,68,1,kitin,M2AZ9A,Nő,1998,14,2021-05-13_08h08.37.757,ranlexdec,2020.2.5,Win32,60
,,,,,,,,,,,,right,0.55288,0,160,160,114,1,tartalom,M2AZ9A,Nő,1998,14,2021-05-13_08h08.37.757,ranlexdec,2020.2.5,Win32,60
,,,,,,,,,,,,left,0.98474,0,161,161,186,1,piláf,M2AZ9A,Nő,1998,14,2021-05-13_08h08.37.757,ranlexdec,2020.2.5,Win32,60
,,,,,,,,,,,,left,0.92758,0,162,162,40,1,diviz,M2AZ9A,Nő,1998,14,2021-05-13_08h08.37.757,ranlexdec,2020.2.5,Win32,60
,,,,,,,,,,,,left,0.64636,0,163,163,5,1,retta,M2AZ9A,Nő,1998,14,2021-05-13_08h08.37.757,ranlexdec,2020.2.5,Win32,60
,,,,,,,,,,,,right,0.81187,0,164,164,238,1,bolgár,M2AZ9A,Nő,1998,14,2021-05-13_08h08.37.757,ranlexdec,2020.2.5,Win32,60
,,,,,,,,,,,,right,0.660075,0,165,165,9,1,hajlik,M2AZ9A,Nő,1998,14,2021-05-13_08h08.37.757,ranlexdec,2020.2.5,Win32,60
,,,,,,,,,,,,left,1.096375,0,166,166,127,1,rozintem,M2AZ9A,Nő,1998,14,2021-05-13_08h08.37.757,ranlexdec,2020.2.5,Win32,60
,,,,,,,,,,,,right,1.33808,0,167,167,205,1,mimézis,M2AZ9A,Nő,1998,14,2021-05-13_08h08.37.757,ranlexdec,2020.2.5,Win32,60
,,,,,,,,,,,,left,1.055835,0,168,168,203,1,abeti,M2AZ9A,Nő,1998,14,2021-05-13_08h08.37.757,ranlexdec,2020.2.5,Win32,60
,,,,,,,,,,,,right,0.609285,0,169,169,183,1,színpad,M2AZ9A,Nő,1998,14,2021-05-13_08h08.37.757,ranlexdec,2020.2.5,Win32,60
,,,,,,,,,,,,right,0.720365,0,170,170,57,1,lejmol,M2AZ9A,Nő,1998,14,2021-05-13_08h08.37.757,ranlexdec,2020.2.5,Win32,60
,,,,,,,,,,,,right,0.63912,0,171,171,48,1,reagál,M2AZ9A,Nő,1998,14,2021-05-13_08h08.37.757,ranlexdec,2020.2.5,Win32,60
,,,,,,,,,,,,right,0.43943,0,172,172,46,1,kurzív,M2AZ9A,Nő,1998,14,2021-05-13_08h08.37.757,ranlexdec,2020.2.5,Win32,60
,,,,,,,,,,,,right,0.700385,0,173,173,39,1,könnyelmű,M2AZ9A,Nő,1998,14,2021-05-13_08h08.37.757,ranlexdec,2020.2.5,Win32,60
,,,,,,,,,,,,left,0.972215,0,174,174,134,1,móringol,M2AZ9A,Nő,1998,14,2021-05-13_08h08.37.757,ranlexdec,2020.2.5,Win32,60
,,,,,,,,,,,,left,1.49064,0,175,175,180,1,adszorbens,M2AZ9A,Nő,1998,14,2021-05-13_08h08.37.757,ranlexdec,2020.2.5,Win32,60
,,,,,,,,,,,,left,1.07833,0,176,176,148,1,mellényzseb,M2AZ9A,Nő,1998,14,2021-05-13_08h08.37.757,ranlexdec,2020.2.5,Win32,60
,,,,,,,,,,,,left,1.090165,0,177,177,153,1,kontrapunkt,M2AZ9A,Nő,1998,14,2021-05-13_08h08.37.757,ranlexdec,2020.2.5,Win32,60
,,,,,,,,,,,,right,0.767175,0,178,178,187,1,testnedv,M2AZ9A,Nő,1998,14,2021-05-13_08h08.37.757,ranlexdec,2020.2.5,Win32,60
,,,,,,,,,,,,right,0.72675,0,179,179,159,1,elegy,M2AZ9A,Nő,1998,14,2021-05-13_08h08.37.757,ranlexdec,2020.2.5,Win32,60
,,,,,,,,,,,,left,1.123445,0,180,180,93,1,kilukát,M2AZ9A,Nő,1998,14,2021-05-13_08h08.37.757,ranlexdec,2020.2.5,Win32,60
,,,,,,,,,,,,left,1.46784,0,181,181,216,1,svábtök,M2AZ9A,Nő,1998,14,2021-05-13_08h08.37.757,ranlexdec,2020.2.5,Win32,60
,,,,,,,,,,,,right,0.53902,0,182,182,177,1,pereg,M2AZ9A,Nő,1998,14,2021-05-13_08h08.37.757,ranlexdec,2020.2.5,Win32,60
,,,,,,,,,,,,left,1.035155,0,183,183,26,1,aurult,M2AZ9A,Nő,1998,14,2021-05-13_08h08.37.757,ranlexdec,2020.2.5,Win32,60
,,,,,,,,,,,,left,1.251595,0,184,184,224,1,truccol,M2AZ9A,Nő,1998,14,2021-05-13_08h08.37.757,ranlexdec,2020.2.5,Win32,60
,,,,,,,,,,,,right,0.644895,0,185,185,89,1,szokik,M2AZ9A,Nő,1998,14,2021-05-13_08h08.37.757,ranlexdec,2020.2.5,Win32,60
,,,,,,,,,,,,right,0.617285,0,186,186,184,1,profit,M2AZ9A,Nő,1998,14,2021-05-13_08h08.37.757,ranlexdec,2020.2.5,Win32,60
,,,,,,,,,,,,right,0.634395,0,187,187,210,1,karakter,M2AZ9A,Nő,1998,14,2021-05-13_08h08.37.757,ranlexdec,2020.2.5,Win32,60
,,,,,,,,,,,,right,0.60248,0,188,188,236,1,csatázik,M2AZ9A,Nő,1998,14,2021-05-13_08h08.37.757,ranlexdec,2020.2.5,Win32,60
,,,,,,,,,,,,right,1.053155,0,189,189,99,1,sárgaréz,M2AZ9A,Nő,1998,14,2021-05-13_08h08.37.757,ranlexdec,2020.2.5,Win32,60
,,,,,,,,,,,,right,0.760005,0,190,190,149,1,anorák,M2AZ9A,Nő,1998,14,2021-05-13_08h08.37.757,ranlexdec,2020.2.5,Win32,60
,,,,,,,,,,,,right,0.701225,0,191,191,7,1,űrlap,M2AZ9A,Nő,1998,14,2021-05-13_08h08.37.757,ranlexdec,2020.2.5,Win32,60
,,,,,,,,,,,,right,0.47081,0,192,192,248,1,örmény,M2AZ9A,Nő,1998,14,2021-05-13_08h08.37.757,ranlexdec,2020.2.5,Win32,60
,,,,,,,,,,,,right,0.82921,0,193,193,15,1,pauzál,M2AZ9A,Nő,1998,14,2021-05-13_08h08.37.757,ranlexdec,2020.2.5,Win32,60
,,,,,,,,,,,,left,1.101425,0,194,194,102,1,pentez,M2AZ9A,Nő,1998,14,2021-05-13_08h08.37.757,ranlexdec,2020.2.5,Win32,60
,,,,,,,,,,,,right,0.612465,0,195,195,201,1,szempont,M2AZ9A,Nő,1998,14,2021-05-13_08h08.37.757,ranlexdec,2020.2.5,Win32,60
,,,,,,,,,,,,right,0.83417,0,196,196,133,1,hübrisz,M2AZ9A,Nő,1998,14,2021-05-13_08h08.37.757,ranlexdec,2020.2.5,Win32,60
,,,,,,,,,,,,right,0.70437,0,197,197,172,1,kettősfém,M2AZ9A,Nő,1998,14,2021-05-13_08h08.37.757,ranlexdec,2020.2.5,Win32,60
,,,,,,,,,,,,left,1.15713,0,198,198,24,1,kosi,M2AZ9A,Nő,1998,14,2021-05-13_08h08.37.757,ranlexdec,2020.2.5,Win32,60
,,,,,,,,,,,,right,0.60843,0,199,199,140,1,diktátor,M2AZ9A,Nő,1998,14,2021-05-13_08h08.37.757,ranlexdec,2020.2.5,Win32,60
,,,,,,,,,,,,right,0.72723,0,200,200,247,1,ausztrál,M2AZ9A,Nő,1998,14,2021-05-13_08h08.37.757,ranlexdec,2020.2.5,Win32,60
,,,,,,,,,,,,left,1.393715,0,201,201,3,1,tömzsa,M2AZ9A,Nő,1998,14,2021-05-13_08h08.37.757,ranlexdec,2020.2.5,Win32,60
,,,,,,,,,,,,right,0.6843,0,202,202,12,1,gyapot,M2AZ9A,Nő,1998,14,2021-05-13_08h08.37.757,ranlexdec,2020.2.5,Win32,60
,,,,,,,,,,,,right,0.6719,0,203,203,90,1,orális,M2AZ9A,Nő,1998,14,2021-05-13_08h08.37.757,ranlexdec,2020.2.5,Win32,60
,,,,,,,,,,,,right,0.55569,0,204,204,94,1,rotor,M2AZ9A,Nő,1998,14,2021-05-13_08h08.37.757,ranlexdec,2020.2.5,Win32,60
,,,,,,,,,,,,right,0.970715,0,205,205,147,1,referál,M2AZ9A,Nő,1998,14,2021-05-13_08h08.37.757,ranlexdec,2020.2.5,Win32,60
,,,,,,,,,,,,left,1.48628,0,206,206,75,1,karnogó,M2AZ9A,Nő,1998,14,2021-05-13_08h08.37.757,ranlexdec,2020.2.5,Win32,60
,,,,,,,,,,,,right,0.64262,0,207,207,122,1,égitest,M2AZ9A,Nő,1998,14,2021-05-13_08h08.37.757,ranlexdec,2020.2.5,Win32,60
,,,,,,,,,,,,left,1.40131,0,208,208,181,1,dohorpák,M2AZ9A,Nő,1998,14,2021-05-13_08h08.37.757,ranlexdec,2020.2.5,Win32,60
,,,,,,,,,,,,right,0.567195,0,209,209,194,1,végbél,M2AZ9A,Nő,1998,14,2021-05-13_08h08.37.757,ranlexdec,2020.2.5,Win32,60
,,,,,,,,,,,,right,0.82391,0,210,210,178,1,sziszeg,M2AZ9A,Nő,1998,14,2021-05-13_08h08.37.757,ranlexdec,2020.2.5,Win32,60
,,,,,,,,,,,,right,0.758855,0,211,211,37,1,lukaszt,M2AZ9A,Nő,1998,14,2021-05-13_08h08.37.757,ranlexdec,2020.2.5,Win32,60
,,,,,,,,,,,,right,0.52227,0,212,212,244,1,kislány,M2AZ9A,Nő,1998,14,2021-05-13_08h08.37.757,ranlexdec,2020.2.5,Win32,60
,,,,,,,,,,,,left,1.301905,0,213,213,87,1,forrpont,M2AZ9A,Nő,1998,14,2021-05-13_08h08.37.757,ranlexdec,2020.2.5,Win32,60
,,,,,,,,,,,,left,0.966985,0,214,214,82,1,kvéker,M2AZ9A,Nő,1998,14,2021-05-13_08h08.37.757,ranlexdec,2020.2.5,Win32,60
,,,,,,,,,,,,right,0.634675,0,215,215,106,1,lalláz,M2AZ9A,Nő,1998,14,2021-05-13_08h08.37.757,ranlexdec,2020.2.5,Win32,60
,,,,,,,,,,,,right,0.62452,0,216,216,138,1,gyűjtemény,M2AZ9A,Nő,1998,14,2021-05-13_08h08.37.757,ranlexdec,2020.2.5,Win32,60
,,,,,,,,,,,,right,1.03742,0,217,217,193,1,bacon,M2AZ9A,Nő,1998,14,2021-05-13_08h08.37.757,ranlexdec,2020.2.5,Win32,60
,,,,,,,,,,,,right,0.579475,0,218,218,64,1,hálózsák,M2AZ9A,Nő,1998,14,2021-05-13_08h08.37.757,ranlexdec,2020.2.5,Win32,60
,,,,,,,,,,,,left,1.35507,0,219,219,30,1,dádá,M2AZ9A,Nő,1998,14,2021-05-13_08h08.37.757,ranlexdec,2020.2.5,Win32,60
,,,,,,,,,,,,left,0.818595,0,220,220,77,1,egant,M2AZ9A,Nő,1998,14,2021-05-13_08h08.37.757,ranlexdec,2020.2.5,Win32,60
,,,,,,,,,,,,left,0.77941,0,221,221,173,1,glosszáz,M2AZ9A,Nő,1998,14,2021-05-13_08h08.37.757,ranlexdec,2020.2.5,Win32,60
,,,,,,,,,,,,right,0.81722,0,222,222,231,1,igény,M2AZ9A,Nő,1998,14,2021-05-13_08h08.37.757,ranlexdec,2020.2.5,Win32,60
,,,,,,,,,,,,left,1.500905,0,223,223,192,1,norvend,M2AZ9A,Nő,1998,14,2021-05-13_08h08.37.757,ranlexdec,2020.2.5,Win32,60
,,,,,,,,,,,,right,0.627855,0,224,224,14,1,selypít,M2AZ9A,Nő,1998,14,2021-05-13_08h08.37.757,ranlexdec,2020.2.5,Win32,60
,,,,,,,,,,,,right,0.634725,0,225,225,85,1,glükóz,M2AZ9A,Nő,1998,14,2021-05-13_08h08.37.757,ranlexdec,2020.2.5,Win32,60
,,,,,,,,,,,,right,0.90122,0,226,226,164,1,kurzivál,M2AZ9A,Nő,1998,14,2021-05-13_08h08.37.757,ranlexdec,2020.2.5,Win32,60
,,,,,,,,,,,,right,1.167905,0,227,227,249,1,kencéz,M2AZ9A,Nő,1998,14,2021-05-13_08h08.37.757,ranlexdec,2020.2.5,Win32,60
,,,,,,,,,,,,right,0.59222,0,228,228,6,1,csüggeszt,M2AZ9A,Nő,1998,14,2021-05-13_08h08.37.757,ranlexdec,2020.2.5,Win32,60
,,,,,,,,,,,,left,1.40087,0,229,229,97,1,vésségi,M2AZ9A,Nő,1998,14,2021-05-13_08h08.37.757,ranlexdec,2020.2.5,Win32,60
,,,,,,,,,,,,right,0.97838,0,230,230,179,1,töredék,M2AZ9A,Nő,1998,14,2021-05-13_08h08.37.757,ranlexdec,2020.2.5,Win32,60
,,,,,,,,,,,,right,0.77432,0,231,231,69,1,gerencsér,M2AZ9A,Nő,1998,14,2021-05-13_08h08.37.757,ranlexdec,2020.2.5,Win32,60
,,,,,,,,,,,,right,0.844785,0,232,232,154,1,keresztény,M2AZ9A,Nő,1998,14,2021-05-13_08h08.37.757,ranlexdec,2020.2.5,Win32,60
,,,,,,,,,,,,right,0.721885,0,233,233,10,1,nárcisz,M2AZ9A,Nő,1998,14,2021-05-13_08h08.37.757,ranlexdec,2020.2.5,Win32,60
,,,,,,,,,,,,left,1.55037,0,234,234,2,1,gyásos,M2AZ9A,Nő,1998,14,2021-05-13_08h08.37.757,ranlexdec,2020.2.5,Win32,60
,,,,,,,,,,,,left,1.350905,0,235,235,141,1,hider,M2AZ9A,Nő,1998,14,2021-05-13_08h08.37.757,ranlexdec,2020.2.5,Win32,60
,,,,,,,,,,,,left,1.435225,0,236,236,166,1,retálhit,M2AZ9A,Nő,1998,14,2021-05-13_08h08.37.757,ranlexdec,2020.2.5,Win32,60
,,,,,,,,,,,,left,1.5674,0,237,237,51,1,bajuszfű,M2AZ9A,Nő,1998,14,2021-05-13_08h08.37.757,ranlexdec,2020.2.5,Win32,60
,,,,,,,,,,,,left,0.684725,0,238,238,234,1,fertilis,M2AZ9A,Nő,1998,14,2021-05-13_08h08.37.757,ranlexdec,2020.2.5,Win32,60
,,,,,,,,,,,,right,1.63874,0,239,239,157,1,káder,M2AZ9A,Nő,1998,14,2021-05-13_08h08.37.757,ranlexdec,2020.2.5,Win32,60
,,,,,,,,,,,,right,0.489195,0,240,240,20,1,század,M2AZ9A,Nő,1998,14,2021-05-13_08h08.37.757,ranlexdec,2020.2.5,Win32,60
,,,,,,,,,,,,right,0.57609,0,241,241,151,1,komplex,M2AZ9A,Nő,1998,14,2021-05-13_08h08.37.757,ranlexdec,2020.2.5,Win32,60
,,,,,,,,,,,,left,1.683895,0,242,242,44,1,ingváll,M2AZ9A,Nő,1998,14,2021-05-13_08h08.37.757,ranlexdec,2020.2.5,Win32,60
,,,,,,,,,,,,right,0.53914,0,243,243,132,1,hatalom,M2AZ9A,Nő,1998,14,2021-05-13_08h08.37.757,ranlexdec,2020.2.5,Win32,60
,,,,,,,,,,,,right,0.56708,0,244,244,185,1,gyülemlik,M2AZ9A,Nő,1998,14,2021-05-13_08h08.37.757,ranlexdec,2020.2.5,Win32,60
,,,,,,,,,,,,left,1.054745,0,245,245,41,1,nagybeteg,M2AZ9A,Nő,1998,14,2021-05-13_08h08.37.757,ranlexdec,2020.2.5,Win32,60
,,,,,,,,,,,,right,0.94228,0,246,246,230,1,délceg,M2AZ9A,Nő,1998,14,2021-05-13_08h08.37.757,ranlexdec,2020.2.5,Win32,60
,,,,,,,,,,,,right,0.52843,0,247,247,124,1,alkalom,M2AZ9A,Nő,1998,14,2021-05-13_08h08.37.757,ranlexdec,2020.2.5,Win32,60
,,,,,,,,,,,,left,1.25925,0,248,248,163,1,kollapszus,M2AZ9A,Nő,1998,14,2021-05-13_08h08.37.757,ranlexdec,2020.2.5,Win32,60
,,,,,,,,,,,,right,0.57233,0,249,249,168,1,grafikon,M2AZ9A,Nő,1998,14,2021-05-13_08h08.37.757,ranlexdec,2020.2.5,Win32,60
