ready2_2.keys,ready2_2.rt,ready2.keys,ready2.rt,key_resp.keys,key_resp.rt,key_resp_3.keys,key_resp_3.rt,key_resp_2.keys,key_resp_2.rt,ready3.keys,ready3.rt,resp.keys,resp.rt,withinBlock.thisRepN,withinBlock.thisTrialN,withinBlock.thisN,withinBlock.thisIndex,withinBlock.ran,word,Azonosító,Az Ön neme,Születési éve,Hány évet töltött az iskolapadban (egyetemet is beleértve),date,expName,psychopyVersion,OS,frameRate
right,37.001105,right,34.490935,right,0.67554,left,0.503285,left,0.651975,right,10.555035,right,0.99387,0,0,0,1,1,csapdáz,KT146,nő,2001.10.07,13,2021-05-13_10h46.36.846,ranlexdec,2020.2.5,Win32,60
,,,,,,,,,,,,left,0.97201,0,1,1,142,1,storítő,KT146,nő,2001.10.07,13,2021-05-13_10h46.36.846,ranlexdec,2020.2.5,Win32,60
,,,,,,,,,,,,right,0.727545,0,2,2,151,1,komplex,KT146,nő,2001.10.07,13,2021-05-13_10h46.36.846,ranlexdec,2020.2.5,Win32,60
,,,,,,,,,,,,right,1.31149,0,3,3,222,1,nyersarany,KT146,nő,2001.10.07,13,2021-05-13_10h46.36.846,ranlexdec,2020.2.5,Win32,60
,,,,,,,,,,,,right,0.66262,0,4,4,124,1,alkalom,KT146,nő,2001.10.07,13,2021-05-13_10h46.36.846,ranlexdec,2020.2.5,Win32,60
,,,,,,,,,,,,right,0.78243,0,5,5,90,1,orális,KT146,nő,2001.10.07,13,2021-05-13_10h46.36.846,ranlexdec,2020.2.5,Win32,60
,,,,,,,,,,,,right,0.719635,0,6,6,165,1,lépték,KT146,nő,2001.10.07,13,2021-05-13_10h46.36.846,ranlexdec,2020.2.5,Win32,60
,,,,,,,,,,,,right,1.564485,0,7,7,37,1,lukaszt,KT146,nő,2001.10.07,13,2021-05-13_10h46.36.846,ranlexdec,2020.2.5,Win32,60
,,,,,,,,,,,,left,0.977995,0,8,8,89,1,szokik,KT146,nő,2001.10.07,13,2021-05-13_10h46.36.846,ranlexdec,2020.2.5,Win32,60
,,,,,,,,,,,,right,1.16056,0,9,9,211,1,tábornagy,KT146,nő,2001.10.07,13,2021-05-13_10h46.36.846,ranlexdec,2020.2.5,Win32,60
,,,,,,,,,,,,left,0.82173,0,10,10,229,1,lemesség,KT146,nő,2001.10.07,13,2021-05-13_10h46.36.846,ranlexdec,2020.2.5,Win32,60
,,,,,,,,,,,,right,0.801265,0,11,11,100,1,balközép,KT146,nő,2001.10.07,13,2021-05-13_10h46.36.846,ranlexdec,2020.2.5,Win32,60
,,,,,,,,,,,,left,0.93736,0,12,12,217,1,ifjít,KT146,nő,2001.10.07,13,2021-05-13_10h46.36.846,ranlexdec,2020.2.5,Win32,60
,,,,,,,,,,,,right,1.378395,0,13,13,69,1,gerencsér,KT146,nő,2001.10.07,13,2021-05-13_10h46.36.846,ranlexdec,2020.2.5,Win32,60
,,,,,,,,,,,,right,0.682115,0,14,14,67,1,szegény,KT146,nő,2001.10.07,13,2021-05-13_10h46.36.846,ranlexdec,2020.2.5,Win32,60
,,,,,,,,,,,,right,0.87902,0,15,15,129,1,turné,KT146,nő,2001.10.07,13,2021-05-13_10h46.36.846,ranlexdec,2020.2.5,Win32,60
,,,,,,,,,,,,right,0.66144,0,16,16,85,1,glükóz,KT146,nő,2001.10.07,13,2021-05-13_10h46.36.846,ranlexdec,2020.2.5,Win32,60
,,,,,,,,,,,,right,0.668375,0,17,17,101,1,nukleon,KT146,nő,2001.10.07,13,2021-05-13_10h46.36.846,ranlexdec,2020.2.5,Win32,60
,,,,,,,,,,,,left,0.812845,0,18,18,150,1,orront,KT146,nő,2001.10.07,13,2021-05-13_10h46.36.846,ranlexdec,2020.2.5,Win32,60
,,,,,,,,,,,,left,1.14608,0,19,19,87,1,forrpont,KT146,nő,2001.10.07,13,2021-05-13_10h46.36.846,ranlexdec,2020.2.5,Win32,60
,,,,,,,,,,,,right,1.74558,0,20,20,247,1,ausztrál,KT146,nő,2001.10.07,13,2021-05-13_10h46.36.846,ranlexdec,2020.2.5,Win32,60
,,,,,,,,,,,,right,0.670905,0,21,21,194,1,végbél,KT146,nő,2001.10.07,13,2021-05-13_10h46.36.846,ranlexdec,2020.2.5,Win32,60
,,,,,,,,,,,,left,1.016405,0,22,22,96,1,alfél,KT146,nő,2001.10.07,13,2021-05-13_10h46.36.846,ranlexdec,2020.2.5,Win32,60
,,,,,,,,,,,,right,0.588625,0,23,23,144,1,rövid,KT146,nő,2001.10.07,13,2021-05-13_10h46.36.846,ranlexdec,2020.2.5,Win32,60
,,,,,,,,,,,,right,1.1578,0,24,24,30,1,dádá,KT146,nő,2001.10.07,13,2021-05-13_10h46.36.846,ranlexdec,2020.2.5,Win32,60
,,,,,,,,,,,,right,0.636075,0,25,25,168,1,grafikon,KT146,nő,2001.10.07,13,2021-05-13_10h46.36.846,ranlexdec,2020.2.5,Win32,60
,,,,,,,,,,,,right,0.93291,0,26,26,238,1,bolgár,KT146,nő,2001.10.07,13,2021-05-13_10h46.36.846,ranlexdec,2020.2.5,Win32,60
,,,,,,,,,,,,right,1.0077,0,27,27,237,1,forgórész,KT146,nő,2001.10.07,13,2021-05-13_10h46.36.846,ranlexdec,2020.2.5,Win32,60
,,,,,,,,,,,,right,2.162485,0,28,28,189,1,konverzál,KT146,nő,2001.10.07,13,2021-05-13_10h46.36.846,ranlexdec,2020.2.5,Win32,60
,,,,,,,,,,,,right,1.19802,0,29,29,143,1,rojtoz,KT146,nő,2001.10.07,13,2021-05-13_10h46.36.846,ranlexdec,2020.2.5,Win32,60
,,,,,,,,,,,,left,1.7492,0,30,30,212,1,farkasbab,KT146,nő,2001.10.07,13,2021-05-13_10h46.36.846,ranlexdec,2020.2.5,Win32,60
,,,,,,,,,,,,right,0.75506,0,31,31,184,1,profit,KT146,nő,2001.10.07,13,2021-05-13_10h46.36.846,ranlexdec,2020.2.5,Win32,60
,,,,,,,,,,,,left,0.89852,0,32,32,84,1,kúpol,KT146,nő,2001.10.07,13,2021-05-13_10h46.36.846,ranlexdec,2020.2.5,Win32,60
,,,,,,,,,,,,right,0.94642,0,33,33,188,1,sugár,KT146,nő,2001.10.07,13,2021-05-13_10h46.36.846,ranlexdec,2020.2.5,Win32,60
,,,,,,,,,,,,left,0.805965,0,34,34,117,1,ószeven,KT146,nő,2001.10.07,13,2021-05-13_10h46.36.846,ranlexdec,2020.2.5,Win32,60
,,,,,,,,,,,,right,0.644995,0,35,35,79,1,extrém,KT146,nő,2001.10.07,13,2021-05-13_10h46.36.846,ranlexdec,2020.2.5,Win32,60
,,,,,,,,,,,,left,0.744445,0,36,36,192,1,norvend,KT146,nő,2001.10.07,13,2021-05-13_10h46.36.846,ranlexdec,2020.2.5,Win32,60
,,,,,,,,,,,,right,1.09994,0,37,37,159,1,elegy,KT146,nő,2001.10.07,13,2021-05-13_10h46.36.846,ranlexdec,2020.2.5,Win32,60
,,,,,,,,,,,,right,0.67963,0,38,38,130,1,derít,KT146,nő,2001.10.07,13,2021-05-13_10h46.36.846,ranlexdec,2020.2.5,Win32,60
,,,,,,,,,,,,right,0.895635,0,39,39,138,1,gyűjtemény,KT146,nő,2001.10.07,13,2021-05-13_10h46.36.846,ranlexdec,2020.2.5,Win32,60
,,,,,,,,,,,,left,1.09582,0,40,40,93,1,kilukát,KT146,nő,2001.10.07,13,2021-05-13_10h46.36.846,ranlexdec,2020.2.5,Win32,60
,,,,,,,,,,,,right,1.65233,0,41,41,232,1,tropikus,KT146,nő,2001.10.07,13,2021-05-13_10h46.36.846,ranlexdec,2020.2.5,Win32,60
,,,,,,,,,,,,right,1.549065,0,42,42,18,1,csapattest,KT146,nő,2001.10.07,13,2021-05-13_10h46.36.846,ranlexdec,2020.2.5,Win32,60
,,,,,,,,,,,,right,1.145675,0,43,43,158,1,hidroxid,KT146,nő,2001.10.07,13,2021-05-13_10h46.36.846,ranlexdec,2020.2.5,Win32,60
,,,,,,,,,,,,left,0.765825,0,44,44,111,1,koenzim,KT146,nő,2001.10.07,13,2021-05-13_10h46.36.846,ranlexdec,2020.2.5,Win32,60
,,,,,,,,,,,,left,1.822775,0,45,45,72,1,mihálóz,KT146,nő,2001.10.07,13,2021-05-13_10h46.36.846,ranlexdec,2020.2.5,Win32,60
,,,,,,,,,,,,left,1.68605,0,46,46,91,1,tajtásos,KT146,nő,2001.10.07,13,2021-05-13_10h46.36.846,ranlexdec,2020.2.5,Win32,60
,,,,,,,,,,,,left,0.70726,0,47,47,234,1,fertilis,KT146,nő,2001.10.07,13,2021-05-13_10h46.36.846,ranlexdec,2020.2.5,Win32,60
,,,,,,,,,,,,right,1.028135,0,48,48,120,1,komál,KT146,nő,2001.10.07,13,2021-05-13_10h46.36.846,ranlexdec,2020.2.5,Win32,60
,,,,,,,,,,,,left,1.6026,0,49,49,112,1,méhezter,KT146,nő,2001.10.07,13,2021-05-13_10h46.36.846,ranlexdec,2020.2.5,Win32,60
,,,,,,,,,,,,left,1.39566,0,50,50,191,1,hitódó,KT146,nő,2001.10.07,13,2021-05-13_10h46.36.846,ranlexdec,2020.2.5,Win32,60
,,,,,,,,,,,,right,0.917885,0,51,51,187,1,testnedv,KT146,nő,2001.10.07,13,2021-05-13_10h46.36.846,ranlexdec,2020.2.5,Win32,60
,,,,,,,,,,,,left,1.470925,0,52,52,108,1,konyrúd,KT146,nő,2001.10.07,13,2021-05-13_10h46.36.846,ranlexdec,2020.2.5,Win32,60
,,,,,,,,,,,,right,0.7468,0,53,53,98,1,mítosz,KT146,nő,2001.10.07,13,2021-05-13_10h46.36.846,ranlexdec,2020.2.5,Win32,60
,,,,,,,,,,,,right,0.752295,0,54,54,20,1,század,KT146,nő,2001.10.07,13,2021-05-13_10h46.36.846,ranlexdec,2020.2.5,Win32,60
,,,,,,,,,,,,right,0.766285,0,55,55,209,1,hidegház,KT146,nő,2001.10.07,13,2021-05-13_10h46.36.846,ranlexdec,2020.2.5,Win32,60
,,,,,,,,,,,,right,0.762225,0,56,56,172,1,kettősfém,KT146,nő,2001.10.07,13,2021-05-13_10h46.36.846,ranlexdec,2020.2.5,Win32,60
,,,,,,,,,,,,left,1.349465,0,57,57,42,1,összalaj,KT146,nő,2001.10.07,13,2021-05-13_10h46.36.846,ranlexdec,2020.2.5,Win32,60
,,,,,,,,,,,,right,1.037935,0,58,58,235,1,transzplantál,KT146,nő,2001.10.07,13,2021-05-13_10h46.36.846,ranlexdec,2020.2.5,Win32,60
,,,,,,,,,,,,right,0.815645,0,59,59,128,1,csüggedez,KT146,nő,2001.10.07,13,2021-05-13_10h46.36.846,ranlexdec,2020.2.5,Win32,60
,,,,,,,,,,,,right,0.60015,0,60,60,59,1,ómagyar,KT146,nő,2001.10.07,13,2021-05-13_10h46.36.846,ranlexdec,2020.2.5,Win32,60
,,,,,,,,,,,,right,1.349045,0,61,61,239,1,donhuán,KT146,nő,2001.10.07,13,2021-05-13_10h46.36.846,ranlexdec,2020.2.5,Win32,60
,,,,,,,,,,,,right,0.66669,0,62,62,114,1,tartalom,KT146,nő,2001.10.07,13,2021-05-13_10h46.36.846,ranlexdec,2020.2.5,Win32,60
,,,,,,,,,,,,right,0.916235,0,63,63,233,1,templomoz,KT146,nő,2001.10.07,13,2021-05-13_10h46.36.846,ranlexdec,2020.2.5,Win32,60
,,,,,,,,,,,,left,0.87907,0,64,64,81,1,takorák,KT146,nő,2001.10.07,13,2021-05-13_10h46.36.846,ranlexdec,2020.2.5,Win32,60
,,,,,,,,,,,,left,2.71217,0,65,65,136,1,rücsök,KT146,nő,2001.10.07,13,2021-05-13_10h46.36.846,ranlexdec,2020.2.5,Win32,60
,,,,,,,,,,,,left,1.21295,0,66,66,205,1,mimézis,KT146,nő,2001.10.07,13,2021-05-13_10h46.36.846,ranlexdec,2020.2.5,Win32,60
,,,,,,,,,,,,right,0.503085,0,67,67,231,1,igény,KT146,nő,2001.10.07,13,2021-05-13_10h46.36.846,ranlexdec,2020.2.5,Win32,60
,,,,,,,,,,,,right,0.53668,0,68,68,183,1,színpad,KT146,nő,2001.10.07,13,2021-05-13_10h46.36.846,ranlexdec,2020.2.5,Win32,60
,,,,,,,,,,,,left,0.969795,0,69,69,203,1,abeti,KT146,nő,2001.10.07,13,2021-05-13_10h46.36.846,ranlexdec,2020.2.5,Win32,60
,,,,,,,,,,,,right,0.746065,0,70,70,230,1,délceg,KT146,nő,2001.10.07,13,2021-05-13_10h46.36.846,ranlexdec,2020.2.5,Win32,60
,,,,,,,,,,,,left,1.06635,0,71,71,204,1,kocskesi,KT146,nő,2001.10.07,13,2021-05-13_10h46.36.846,ranlexdec,2020.2.5,Win32,60
,,,,,,,,,,,,right,1.281145,0,72,72,149,1,anorák,KT146,nő,2001.10.07,13,2021-05-13_10h46.36.846,ranlexdec,2020.2.5,Win32,60
,,,,,,,,,,,,right,0.882135,0,73,73,4,1,viszonvád,KT146,nő,2001.10.07,13,2021-05-13_10h46.36.846,ranlexdec,2020.2.5,Win32,60
,,,,,,,,,,,,right,0.666485,0,74,74,9,1,hajlik,KT146,nő,2001.10.07,13,2021-05-13_10h46.36.846,ranlexdec,2020.2.5,Win32,60
,,,,,,,,,,,,left,2.09686,0,75,75,131,1,vetézmés,KT146,nő,2001.10.07,13,2021-05-13_10h46.36.846,ranlexdec,2020.2.5,Win32,60
,,,,,,,,,,,,left,2.560925,0,76,76,60,1,bárányfark,KT146,nő,2001.10.07,13,2021-05-13_10h46.36.846,ranlexdec,2020.2.5,Win32,60
,,,,,,,,,,,,right,1.48075,0,77,77,152,1,rakódik,KT146,nő,2001.10.07,13,2021-05-13_10h46.36.846,ranlexdec,2020.2.5,Win32,60
,,,,,,,,,,,,right,0.674125,0,78,78,227,1,kötődik,KT146,nő,2001.10.07,13,2021-05-13_10h46.36.846,ranlexdec,2020.2.5,Win32,60
,,,,,,,,,,,,left,1.45967,0,79,79,21,1,heveny,KT146,nő,2001.10.07,13,2021-05-13_10h46.36.846,ranlexdec,2020.2.5,Win32,60
,,,,,,,,,,,,right,0.869785,0,80,80,206,1,horizont,KT146,nő,2001.10.07,13,2021-05-13_10h46.36.846,ranlexdec,2020.2.5,Win32,60
,,,,,,,,,,,,left,0.71226,0,81,81,24,1,kosi,KT146,nő,2001.10.07,13,2021-05-13_10h46.36.846,ranlexdec,2020.2.5,Win32,60
,,,,,,,,,,,,left,0.847625,0,82,82,15,1,pauzál,KT146,nő,2001.10.07,13,2021-05-13_10h46.36.846,ranlexdec,2020.2.5,Win32,60
,,,,,,,,,,,,right,0.765185,0,83,83,48,1,reagál,KT146,nő,2001.10.07,13,2021-05-13_10h46.36.846,ranlexdec,2020.2.5,Win32,60
,,,,,,,,,,,,left,0.92916,0,84,84,153,1,kontrapunkt,KT146,nő,2001.10.07,13,2021-05-13_10h46.36.846,ranlexdec,2020.2.5,Win32,60
,,,,,,,,,,,,left,0.83081,0,85,85,94,1,rotor,KT146,nő,2001.10.07,13,2021-05-13_10h46.36.846,ranlexdec,2020.2.5,Win32,60
,,,,,,,,,,,,left,0.512225,0,86,86,5,1,retta,KT146,nő,2001.10.07,13,2021-05-13_10h46.36.846,ranlexdec,2020.2.5,Win32,60
,,,,,,,,,,,,left,0.74053,0,87,87,163,1,kollapszus,KT146,nő,2001.10.07,13,2021-05-13_10h46.36.846,ranlexdec,2020.2.5,Win32,60
,,,,,,,,,,,,right,0.562315,0,88,88,78,1,törékeny,KT146,nő,2001.10.07,13,2021-05-13_10h46.36.846,ranlexdec,2020.2.5,Win32,60
,,,,,,,,,,,,right,1.43243,0,89,89,115,1,fajansz,KT146,nő,2001.10.07,13,2021-05-13_10h46.36.846,ranlexdec,2020.2.5,Win32,60
,,,,,,,,,,,,left,0.850465,0,90,90,29,1,novagár,KT146,nő,2001.10.07,13,2021-05-13_10h46.36.846,ranlexdec,2020.2.5,Win32,60
,,,,,,,,,,,,left,0.82184,0,91,91,181,1,dohorpák,KT146,nő,2001.10.07,13,2021-05-13_10h46.36.846,ranlexdec,2020.2.5,Win32,60
,,,,,,,,,,,,right,0.668975,0,92,92,161,1,példakép,KT146,nő,2001.10.07,13,2021-05-13_10h46.36.846,ranlexdec,2020.2.5,Win32,60
,,,,,,,,,,,,left,1.27907,0,93,93,125,1,úszamos,KT146,nő,2001.10.07,13,2021-05-13_10h46.36.846,ranlexdec,2020.2.5,Win32,60
,,,,,,,,,,,,right,0.69591,0,94,94,8,1,kulcscsont,KT146,nő,2001.10.07,13,2021-05-13_10h46.36.846,ranlexdec,2020.2.5,Win32,60
,,,,,,,,,,,,right,0.71234,0,95,95,68,1,kitin,KT146,nő,2001.10.07,13,2021-05-13_10h46.36.846,ranlexdec,2020.2.5,Win32,60
,,,,,,,,,,,,left,0.71269,0,96,96,242,1,rekvizit,KT146,nő,2001.10.07,13,2021-05-13_10h46.36.846,ranlexdec,2020.2.5,Win32,60
,,,,,,,,,,,,left,1.084845,0,97,97,107,1,kelől,KT146,nő,2001.10.07,13,2021-05-13_10h46.36.846,ranlexdec,2020.2.5,Win32,60
,,,,,,,,,,,,right,0.71208,0,98,98,154,1,keresztény,KT146,nő,2001.10.07,13,2021-05-13_10h46.36.846,ranlexdec,2020.2.5,Win32,60
,,,,,,,,,,,,right,0.5395,0,99,99,214,1,tenger,KT146,nő,2001.10.07,13,2021-05-13_10h46.36.846,ranlexdec,2020.2.5,Win32,60
,,,,,,,,,,,,left,0.753915,0,100,100,82,1,kvéker,KT146,nő,2001.10.07,13,2021-05-13_10h46.36.846,ranlexdec,2020.2.5,Win32,60
,,,,,,,,,,,,right,0.596045,0,101,101,210,1,karakter,KT146,nő,2001.10.07,13,2021-05-13_10h46.36.846,ranlexdec,2020.2.5,Win32,60
,,,,,,,,,,,,left,0.788705,0,102,102,134,1,móringol,KT146,nő,2001.10.07,13,2021-05-13_10h46.36.846,ranlexdec,2020.2.5,Win32,60
,,,,,,,,,,,,right,0.652685,0,103,103,43,1,közhely,KT146,nő,2001.10.07,13,2021-05-13_10h46.36.846,ranlexdec,2020.2.5,Win32,60
,,,,,,,,,,,,right,0.607775,0,104,104,33,1,kalcium,KT146,nő,2001.10.07,13,2021-05-13_10h46.36.846,ranlexdec,2020.2.5,Win32,60
,,,,,,,,,,,,left,0.76372,0,105,105,216,1,svábtök,KT146,nő,2001.10.07,13,2021-05-13_10h46.36.846,ranlexdec,2020.2.5,Win32,60
,,,,,,,,,,,,left,0.788125,0,106,106,2,1,gyásos,KT146,nő,2001.10.07,13,2021-05-13_10h46.36.846,ranlexdec,2020.2.5,Win32,60
,,,,,,,,,,,,left,0.91345,0,107,107,52,1,kunyai,KT146,nő,2001.10.07,13,2021-05-13_10h46.36.846,ranlexdec,2020.2.5,Win32,60
,,,,,,,,,,,,right,0.849475,0,108,108,99,1,sárgaréz,KT146,nő,2001.10.07,13,2021-05-13_10h46.36.846,ranlexdec,2020.2.5,Win32,60
,,,,,,,,,,,,right,0.76584,0,109,109,27,1,sporthorgász,KT146,nő,2001.10.07,13,2021-05-13_10h46.36.846,ranlexdec,2020.2.5,Win32,60
,,,,,,,,,,,,right,0.46301,0,110,110,7,1,űrlap,KT146,nő,2001.10.07,13,2021-05-13_10h46.36.846,ranlexdec,2020.2.5,Win32,60
,,,,,,,,,,,,right,0.58952,0,111,111,236,1,csatázik,KT146,nő,2001.10.07,13,2021-05-13_10h46.36.846,ranlexdec,2020.2.5,Win32,60
,,,,,,,,,,,,right,0.504675,0,112,112,208,1,lélek,KT146,nő,2001.10.07,13,2021-05-13_10h46.36.846,ranlexdec,2020.2.5,Win32,60
,,,,,,,,,,,,right,0.51903,0,113,113,31,1,iszlám,KT146,nő,2001.10.07,13,2021-05-13_10h46.36.846,ranlexdec,2020.2.5,Win32,60
,,,,,,,,,,,,left,0.8066,0,114,114,197,1,krakéler,KT146,nő,2001.10.07,13,2021-05-13_10h46.36.846,ranlexdec,2020.2.5,Win32,60
,,,,,,,,,,,,right,0.61252,0,115,115,196,1,dolgozik,KT146,nő,2001.10.07,13,2021-05-13_10h46.36.846,ranlexdec,2020.2.5,Win32,60
,,,,,,,,,,,,right,1.14649,0,116,116,179,1,töredék,KT146,nő,2001.10.07,13,2021-05-13_10h46.36.846,ranlexdec,2020.2.5,Win32,60
,,,,,,,,,,,,right,0.482835,0,117,117,45,1,népszerű,KT146,nő,2001.10.07,13,2021-05-13_10h46.36.846,ranlexdec,2020.2.5,Win32,60
,,,,,,,,,,,,left,0.782505,0,118,118,65,1,infimum,KT146,nő,2001.10.07,13,2021-05-13_10h46.36.846,ranlexdec,2020.2.5,Win32,60
,,,,,,,,,,,,right,0.82128,0,119,119,178,1,sziszeg,KT146,nő,2001.10.07,13,2021-05-13_10h46.36.846,ranlexdec,2020.2.5,Win32,60
,,,,,,,,,,,,right,1.021515,0,120,120,133,1,hübrisz,KT146,nő,2001.10.07,13,2021-05-13_10h46.36.846,ranlexdec,2020.2.5,Win32,60
,,,,,,,,,,,,right,0.87921,0,121,121,62,1,bizmut,KT146,nő,2001.10.07,13,2021-05-13_10h46.36.846,ranlexdec,2020.2.5,Win32,60
,,,,,,,,,,,,right,0.49736,0,122,122,86,1,jármű,KT146,nő,2001.10.07,13,2021-05-13_10h46.36.846,ranlexdec,2020.2.5,Win32,60
,,,,,,,,,,,,right,0.47903,0,123,123,56,1,kanalaz,KT146,nő,2001.10.07,13,2021-05-13_10h46.36.846,ranlexdec,2020.2.5,Win32,60
,,,,,,,,,,,,left,0.94664,0,124,124,83,1,vonzum,KT146,nő,2001.10.07,13,2021-05-13_10h46.36.846,ranlexdec,2020.2.5,Win32,60
,,,,,,,,,,,,right,0.672615,0,125,125,221,1,törődik,KT146,nő,2001.10.07,13,2021-05-13_10h46.36.846,ranlexdec,2020.2.5,Win32,60
,,,,,,,,,,,,left,0.7624,0,126,126,207,1,diffamál,KT146,nő,2001.10.07,13,2021-05-13_10h46.36.846,ranlexdec,2020.2.5,Win32,60
,,,,,,,,,,,,right,0.737545,0,127,127,70,1,lakotthely,KT146,nő,2001.10.07,13,2021-05-13_10h46.36.846,ranlexdec,2020.2.5,Win32,60
,,,,,,,,,,,,right,0.54573,0,128,128,92,1,lágyék,KT146,nő,2001.10.07,13,2021-05-13_10h46.36.846,ranlexdec,2020.2.5,Win32,60
,,,,,,,,,,,,right,1.39878,0,129,129,14,1,selypít,KT146,nő,2001.10.07,13,2021-05-13_10h46.36.846,ranlexdec,2020.2.5,Win32,60
,,,,,,,,,,,,left,0.854595,0,130,130,195,1,petél,KT146,nő,2001.10.07,13,2021-05-13_10h46.36.846,ranlexdec,2020.2.5,Win32,60
,,,,,,,,,,,,left,1.021005,0,131,131,109,1,vényegő,KT146,nő,2001.10.07,13,2021-05-13_10h46.36.846,ranlexdec,2020.2.5,Win32,60
,,,,,,,,,,,,left,0.740835,0,132,132,36,1,tröshet,KT146,nő,2001.10.07,13,2021-05-13_10h46.36.846,ranlexdec,2020.2.5,Win32,60
,,,,,,,,,,,,left,0.623585,0,133,133,26,1,aurult,KT146,nő,2001.10.07,13,2021-05-13_10h46.36.846,ranlexdec,2020.2.5,Win32,60
,,,,,,,,,,,,right,0.71955,0,134,134,28,1,gazdag,KT146,nő,2001.10.07,13,2021-05-13_10h46.36.846,ranlexdec,2020.2.5,Win32,60
,,,,,,,,,,,,right,0.896415,0,135,135,174,1,cianid,KT146,nő,2001.10.07,13,2021-05-13_10h46.36.846,ranlexdec,2020.2.5,Win32,60
,,,,,,,,,,,,left,0.79927,0,136,136,3,1,tömzsa,KT146,nő,2001.10.07,13,2021-05-13_10h46.36.846,ranlexdec,2020.2.5,Win32,60
,,,,,,,,,,,,left,0.70472,0,137,137,119,1,cugehőr,KT146,nő,2001.10.07,13,2021-05-13_10h46.36.846,ranlexdec,2020.2.5,Win32,60
,,,,,,,,,,,,left,0.731825,0,138,138,166,1,retálhit,KT146,nő,2001.10.07,13,2021-05-13_10h46.36.846,ranlexdec,2020.2.5,Win32,60
,,,,,,,,,,,,right,0.706705,0,139,139,175,1,szilikát,KT146,nő,2001.10.07,13,2021-05-13_10h46.36.846,ranlexdec,2020.2.5,Win32,60
,,,,,,,,,,,,right,0.45726,0,140,140,80,1,darab,KT146,nő,2001.10.07,13,2021-05-13_10h46.36.846,ranlexdec,2020.2.5,Win32,60
,,,,,,,,,,,,left,0.745195,0,141,141,44,1,ingváll,KT146,nő,2001.10.07,13,2021-05-13_10h46.36.846,ranlexdec,2020.2.5,Win32,60
,,,,,,,,,,,,right,0.80353,0,142,142,53,1,puritán,KT146,nő,2001.10.07,13,2021-05-13_10h46.36.846,ranlexdec,2020.2.5,Win32,60
,,,,,,,,,,,,right,0.736035,0,143,143,63,1,viszkózus,KT146,nő,2001.10.07,13,2021-05-13_10h46.36.846,ranlexdec,2020.2.5,Win32,60
,,,,,,,,,,,,right,0.70715,0,144,144,74,1,püffeszt,KT146,nő,2001.10.07,13,2021-05-13_10h46.36.846,ranlexdec,2020.2.5,Win32,60
,,,,,,,,,,,,right,0.766655,0,145,145,171,1,újgazdag,KT146,nő,2001.10.07,13,2021-05-13_10h46.36.846,ranlexdec,2020.2.5,Win32,60
,,,,,,,,,,,,left,1.112545,0,146,146,167,1,vabank,KT146,nő,2001.10.07,13,2021-05-13_10h46.36.846,ranlexdec,2020.2.5,Win32,60
,,,,,,,,,,,,left,0.663375,0,147,147,225,1,bajadér,KT146,nő,2001.10.07,13,2021-05-13_10h46.36.846,ranlexdec,2020.2.5,Win32,60
,,,,,,,,,,,,right,0.751515,0,148,148,61,1,régész,KT146,nő,2001.10.07,13,2021-05-13_10h46.36.846,ranlexdec,2020.2.5,Win32,60
,,,,,,,,,,,,right,0.508225,0,149,149,244,1,kislány,KT146,nő,2001.10.07,13,2021-05-13_10h46.36.846,ranlexdec,2020.2.5,Win32,60
,,,,,,,,,,,,left,1.032495,0,150,150,106,1,lalláz,KT146,nő,2001.10.07,13,2021-05-13_10h46.36.846,ranlexdec,2020.2.5,Win32,60
,,,,,,,,,,,,right,0.49629,0,151,151,58,1,barát,KT146,nő,2001.10.07,13,2021-05-13_10h46.36.846,ranlexdec,2020.2.5,Win32,60
,,,,,,,,,,,,right,0.467115,0,152,152,116,1,árus,KT146,nő,2001.10.07,13,2021-05-13_10h46.36.846,ranlexdec,2020.2.5,Win32,60
,,,,,,,,,,,,right,0.63951,0,153,153,34,1,csengettyű,KT146,nő,2001.10.07,13,2021-05-13_10h46.36.846,ranlexdec,2020.2.5,Win32,60
,,,,,,,,,,,,left,2.12917,0,154,154,240,1,áradmány,KT146,nő,2001.10.07,13,2021-05-13_10h46.36.846,ranlexdec,2020.2.5,Win32,60
,,,,,,,,,,,,right,1.16113,0,155,155,146,1,kondenzcsík,KT146,nő,2001.10.07,13,2021-05-13_10h46.36.846,ranlexdec,2020.2.5,Win32,60
,,,,,,,,,,,,left,1.15456,0,156,156,218,1,tortya,KT146,nő,2001.10.07,13,2021-05-13_10h46.36.846,ranlexdec,2020.2.5,Win32,60
,,,,,,,,,,,,right,0.829475,0,157,157,140,1,diktátor,KT146,nő,2001.10.07,13,2021-05-13_10h46.36.846,ranlexdec,2020.2.5,Win32,60
,,,,,,,,,,,,right,0.613075,0,158,158,113,1,piktogram,KT146,nő,2001.10.07,13,2021-05-13_10h46.36.846,ranlexdec,2020.2.5,Win32,60
,,,,,,,,,,,,left,1.3293,0,159,159,198,1,lublika,KT146,nő,2001.10.07,13,2021-05-13_10h46.36.846,ranlexdec,2020.2.5,Win32,60
,,,,,,,,,,,,right,0.679745,0,160,160,32,1,genom,KT146,nő,2001.10.07,13,2021-05-13_10h46.36.846,ranlexdec,2020.2.5,Win32,60
,,,,,,,,,,,,right,0.440865,0,161,161,118,1,libling,KT146,nő,2001.10.07,13,2021-05-13_10h46.36.846,ranlexdec,2020.2.5,Win32,60
,,,,,,,,,,,,left,1.69665,0,162,162,147,1,referál,KT146,nő,2001.10.07,13,2021-05-13_10h46.36.846,ranlexdec,2020.2.5,Win32,60
,,,,,,,,,,,,right,0.93184,0,163,163,104,1,dolog,KT146,nő,2001.10.07,13,2021-05-13_10h46.36.846,ranlexdec,2020.2.5,Win32,60
,,,,,,,,,,,,left,1.306995,0,164,164,139,1,vároló,KT146,nő,2001.10.07,13,2021-05-13_10h46.36.846,ranlexdec,2020.2.5,Win32,60
,,,,,,,,,,,,left,1.697535,0,165,165,164,1,kurzivál,KT146,nő,2001.10.07,13,2021-05-13_10h46.36.846,ranlexdec,2020.2.5,Win32,60
,,,,,,,,,,,,left,0.75368,0,166,166,76,1,jegedény,KT146,nő,2001.10.07,13,2021-05-13_10h46.36.846,ranlexdec,2020.2.5,Win32,60
,,,,,,,,,,,,left,0.601415,0,167,167,243,1,dipeptid,KT146,nő,2001.10.07,13,2021-05-13_10h46.36.846,ranlexdec,2020.2.5,Win32,60
,,,,,,,,,,,,right,1.982265,0,168,168,39,1,könnyelmű,KT146,nő,2001.10.07,13,2021-05-13_10h46.36.846,ranlexdec,2020.2.5,Win32,60
,,,,,,,,,,,,right,0.537045,0,169,169,13,1,törköly,KT146,nő,2001.10.07,13,2021-05-13_10h46.36.846,ranlexdec,2020.2.5,Win32,60
,,,,,,,,,,,,right,0.88387,0,170,170,248,1,örmény,KT146,nő,2001.10.07,13,2021-05-13_10h46.36.846,ranlexdec,2020.2.5,Win32,60
,,,,,,,,,,,,right,0.80652,0,171,171,241,1,kárpit,KT146,nő,2001.10.07,13,2021-05-13_10h46.36.846,ranlexdec,2020.2.5,Win32,60
,,,,,,,,,,,,left,1.34645,0,172,172,155,1,megpadék,KT146,nő,2001.10.07,13,2021-05-13_10h46.36.846,ranlexdec,2020.2.5,Win32,60
,,,,,,,,,,,,left,0.841075,0,173,173,156,1,lazúroz,KT146,nő,2001.10.07,13,2021-05-13_10h46.36.846,ranlexdec,2020.2.5,Win32,60
,,,,,,,,,,,,left,0.805015,0,174,174,145,1,kurtít,KT146,nő,2001.10.07,13,2021-05-13_10h46.36.846,ranlexdec,2020.2.5,Win32,60
,,,,,,,,,,,,left,0.802605,0,175,175,249,1,kencéz,KT146,nő,2001.10.07,13,2021-05-13_10h46.36.846,ranlexdec,2020.2.5,Win32,60
,,,,,,,,,,,,right,0.933485,0,176,176,213,1,eszköz,KT146,nő,2001.10.07,13,2021-05-13_10h46.36.846,ranlexdec,2020.2.5,Win32,60
,,,,,,,,,,,,left,0.85533,0,177,177,71,1,extuál,KT146,nő,2001.10.07,13,2021-05-13_10h46.36.846,ranlexdec,2020.2.5,Win32,60
,,,,,,,,,,,,right,0.680765,0,178,178,41,1,nagybeteg,KT146,nő,2001.10.07,13,2021-05-13_10h46.36.846,ranlexdec,2020.2.5,Win32,60
,,,,,,,,,,,,right,0.56305,0,179,179,88,1,pohár,KT146,nő,2001.10.07,13,2021-05-13_10h46.36.846,ranlexdec,2020.2.5,Win32,60
,,,,,,,,,,,,left,0.929845,0,180,180,97,1,vésségi,KT146,nő,2001.10.07,13,2021-05-13_10h46.36.846,ranlexdec,2020.2.5,Win32,60
,,,,,,,,,,,,left,0.962335,0,181,181,219,1,szimboló,KT146,nő,2001.10.07,13,2021-05-13_10h46.36.846,ranlexdec,2020.2.5,Win32,60
,,,,,,,,,,,,right,1.06327,0,182,182,122,1,égitest,KT146,nő,2001.10.07,13,2021-05-13_10h46.36.846,ranlexdec,2020.2.5,Win32,60
,,,,,,,,,,,,left,0.958705,0,183,183,103,1,szabotró,KT146,nő,2001.10.07,13,2021-05-13_10h46.36.846,ranlexdec,2020.2.5,Win32,60
,,,,,,,,,,,,right,1.1372,0,184,184,193,1,bacon,KT146,nő,2001.10.07,13,2021-05-13_10h46.36.846,ranlexdec,2020.2.5,Win32,60
,,,,,,,,,,,,right,0.812545,0,185,185,202,1,abszint,KT146,nő,2001.10.07,13,2021-05-13_10h46.36.846,ranlexdec,2020.2.5,Win32,60
,,,,,,,,,,,,left,1.231615,0,186,186,16,1,cséltás,KT146,nő,2001.10.07,13,2021-05-13_10h46.36.846,ranlexdec,2020.2.5,Win32,60
,,,,,,,,,,,,left,0.56281,0,187,187,66,1,parkkói,KT146,nő,2001.10.07,13,2021-05-13_10h46.36.846,ranlexdec,2020.2.5,Win32,60
,,,,,,,,,,,,right,0.681855,0,188,188,201,1,szempont,KT146,nő,2001.10.07,13,2021-05-13_10h46.36.846,ranlexdec,2020.2.5,Win32,60
,,,,,,,,,,,,right,1.629095,0,189,189,182,1,nagyszámú,KT146,nő,2001.10.07,13,2021-05-13_10h46.36.846,ranlexdec,2020.2.5,Win32,60
,,,,,,,,,,,,left,0.74577,0,190,190,226,1,szalicil,KT146,nő,2001.10.07,13,2021-05-13_10h46.36.846,ranlexdec,2020.2.5,Win32,60
,,,,,,,,,,,,left,0.932265,0,191,191,46,1,kurzív,KT146,nő,2001.10.07,13,2021-05-13_10h46.36.846,ranlexdec,2020.2.5,Win32,60
,,,,,,,,,,,,right,0.550405,0,192,192,73,1,olaj,KT146,nő,2001.10.07,13,2021-05-13_10h46.36.846,ranlexdec,2020.2.5,Win32,60
,,,,,,,,,,,,left,0.87956,0,193,193,75,1,karnogó,KT146,nő,2001.10.07,13,2021-05-13_10h46.36.846,ranlexdec,2020.2.5,Win32,60
,,,,,,,,,,,,left,0.683465,0,194,194,190,1,rámáz,KT146,nő,2001.10.07,13,2021-05-13_10h46.36.846,ranlexdec,2020.2.5,Win32,60
,,,,,,,,,,,,left,0.71329,0,195,195,137,1,aragas,KT146,nő,2001.10.07,13,2021-05-13_10h46.36.846,ranlexdec,2020.2.5,Win32,60
,,,,,,,,,,,,left,1.396075,0,196,196,162,1,nimbus,KT146,nő,2001.10.07,13,2021-05-13_10h46.36.846,ranlexdec,2020.2.5,Win32,60
,,,,,,,,,,,,left,1.3363,0,197,197,35,1,türemlik,KT146,nő,2001.10.07,13,2021-05-13_10h46.36.846,ranlexdec,2020.2.5,Win32,60
,,,,,,,,,,,,right,1.046,0,198,198,19,1,tangózik,KT146,nő,2001.10.07,13,2021-05-13_10h46.36.846,ranlexdec,2020.2.5,Win32,60
,,,,,,,,,,,,right,0.835515,0,199,199,126,1,rejtőzik,KT146,nő,2001.10.07,13,2021-05-13_10h46.36.846,ranlexdec,2020.2.5,Win32,60
,,,,,,,,,,,,right,0.54374,0,200,200,169,1,komoly,KT146,nő,2001.10.07,13,2021-05-13_10h46.36.846,ranlexdec,2020.2.5,Win32,60
,,,,,,,,,,,,left,0.86853,0,201,201,17,1,magmatit,KT146,nő,2001.10.07,13,2021-05-13_10h46.36.846,ranlexdec,2020.2.5,Win32,60
,,,,,,,,,,,,right,0.753995,0,202,202,123,1,luftballon,KT146,nő,2001.10.07,13,2021-05-13_10h46.36.846,ranlexdec,2020.2.5,Win32,60
,,,,,,,,,,,,right,1.67967,0,203,203,51,1,bajuszfű,KT146,nő,2001.10.07,13,2021-05-13_10h46.36.846,ranlexdec,2020.2.5,Win32,60
,,,,,,,,,,,,right,1.19602,0,204,204,64,1,hálózsák,KT146,nő,2001.10.07,13,2021-05-13_10h46.36.846,ranlexdec,2020.2.5,Win32,60
,,,,,,,,,,,,right,0.729695,0,205,205,185,1,gyülemlik,KT146,nő,2001.10.07,13,2021-05-13_10h46.36.846,ranlexdec,2020.2.5,Win32,60
,,,,,,,,,,,,right,1.267125,0,206,206,95,1,skubizik,KT146,nő,2001.10.07,13,2021-05-13_10h46.36.846,ranlexdec,2020.2.5,Win32,60
,,,,,,,,,,,,right,0.650035,0,207,207,54,1,fürkész,KT146,nő,2001.10.07,13,2021-05-13_10h46.36.846,ranlexdec,2020.2.5,Win32,60
,,,,,,,,,,,,left,0.682885,0,208,208,49,1,ernyak,KT146,nő,2001.10.07,13,2021-05-13_10h46.36.846,ranlexdec,2020.2.5,Win32,60
,,,,,,,,,,,,left,0.95252,0,209,209,180,1,adszorbens,KT146,nő,2001.10.07,13,2021-05-13_10h46.36.846,ranlexdec,2020.2.5,Win32,60
,,,,,,,,,,,,left,1.149075,0,210,210,11,1,viszkóz,KT146,nő,2001.10.07,13,2021-05-13_10h46.36.846,ranlexdec,2020.2.5,Win32,60
,,,,,,,,,,,,left,0.690585,0,211,211,38,1,zomogyi,KT146,nő,2001.10.07,13,2021-05-13_10h46.36.846,ranlexdec,2020.2.5,Win32,60
,,,,,,,,,,,,left,0.691505,0,212,212,102,1,pentez,KT146,nő,2001.10.07,13,2021-05-13_10h46.36.846,ranlexdec,2020.2.5,Win32,60
,,,,,,,,,,,,right,0.61717,0,213,213,176,1,bélyeg,KT146,nő,2001.10.07,13,2021-05-13_10h46.36.846,ranlexdec,2020.2.5,Win32,60
,,,,,,,,,,,,right,0.543895,0,214,214,170,1,változik,KT146,nő,2001.10.07,13,2021-05-13_10h46.36.846,ranlexdec,2020.2.5,Win32,60
,,,,,,,,,,,,right,0.83331,0,215,215,228,1,tarol,KT146,nő,2001.10.07,13,2021-05-13_10h46.36.846,ranlexdec,2020.2.5,Win32,60
,,,,,,,,,,,,right,0.532925,0,216,216,110,1,időszak,KT146,nő,2001.10.07,13,2021-05-13_10h46.36.846,ranlexdec,2020.2.5,Win32,60
,,,,,,,,,,,,left,0.85423,0,217,217,215,1,neoprén,KT146,nő,2001.10.07,13,2021-05-13_10h46.36.846,ranlexdec,2020.2.5,Win32,60
,,,,,,,,,,,,left,0.979355,0,218,218,23,1,szelégül,KT146,nő,2001.10.07,13,2021-05-13_10h46.36.846,ranlexdec,2020.2.5,Win32,60
,,,,,,,,,,,,right,0.780125,0,219,219,25,1,reform,KT146,nő,2001.10.07,13,2021-05-13_10h46.36.846,ranlexdec,2020.2.5,Win32,60
,,,,,,,,,,,,left,0.861475,0,220,220,121,1,aggófű,KT146,nő,2001.10.07,13,2021-05-13_10h46.36.846,ranlexdec,2020.2.5,Win32,60
,,,,,,,,,,,,right,0.54705,0,221,221,0,1,irány,KT146,nő,2001.10.07,13,2021-05-13_10h46.36.846,ranlexdec,2020.2.5,Win32,60
,,,,,,,,,,,,right,0.519905,0,222,222,160,1,százalék,KT146,nő,2001.10.07,13,2021-05-13_10h46.36.846,ranlexdec,2020.2.5,Win32,60
,,,,,,,,,,,,left,0.963145,0,223,223,224,1,truccol,KT146,nő,2001.10.07,13,2021-05-13_10h46.36.846,ranlexdec,2020.2.5,Win32,60
,,,,,,,,,,,,right,1.168,0,224,224,220,1,csontdarab,KT146,nő,2001.10.07,13,2021-05-13_10h46.36.846,ranlexdec,2020.2.5,Win32,60
,,,,,,,,,,,,right,0.49624,0,225,225,177,1,pereg,KT146,nő,2001.10.07,13,2021-05-13_10h46.36.846,ranlexdec,2020.2.5,Win32,60
,,,,,,,,,,,,right,0.512445,0,226,226,6,1,csüggeszt,KT146,nő,2001.10.07,13,2021-05-13_10h46.36.846,ranlexdec,2020.2.5,Win32,60
,,,,,,,,,,,,left,0.69591,0,227,227,186,1,piláf,KT146,nő,2001.10.07,13,2021-05-13_10h46.36.846,ranlexdec,2020.2.5,Win32,60
,,,,,,,,,,,,left,0.899195,0,228,228,77,1,egant,KT146,nő,2001.10.07,13,2021-05-13_10h46.36.846,ranlexdec,2020.2.5,Win32,60
,,,,,,,,,,,,right,0.63302,0,229,229,55,1,látszik,KT146,nő,2001.10.07,13,2021-05-13_10h46.36.846,ranlexdec,2020.2.5,Win32,60
,,,,,,,,,,,,right,0.996795,0,230,230,105,1,tököl,KT146,nő,2001.10.07,13,2021-05-13_10h46.36.846,ranlexdec,2020.2.5,Win32,60
,,,,,,,,,,,,left,0.76956,0,231,231,127,1,rozintem,KT146,nő,2001.10.07,13,2021-05-13_10h46.36.846,ranlexdec,2020.2.5,Win32,60
,,,,,,,,,,,,left,1.100325,0,232,232,223,1,árstop,KT146,nő,2001.10.07,13,2021-05-13_10h46.36.846,ranlexdec,2020.2.5,Win32,60
,,,,,,,,,,,,right,0.51245,0,233,233,199,1,ború,KT146,nő,2001.10.07,13,2021-05-13_10h46.36.846,ranlexdec,2020.2.5,Win32,60
,,,,,,,,,,,,right,0.87245,0,234,234,148,1,mellényzseb,KT146,nő,2001.10.07,13,2021-05-13_10h46.36.846,ranlexdec,2020.2.5,Win32,60
,,,,,,,,,,,,right,0.922975,0,235,235,22,1,arzénsav,KT146,nő,2001.10.07,13,2021-05-13_10h46.36.846,ranlexdec,2020.2.5,Win32,60
,,,,,,,,,,,,left,0.878695,0,236,236,141,1,hider,KT146,nő,2001.10.07,13,2021-05-13_10h46.36.846,ranlexdec,2020.2.5,Win32,60
,,,,,,,,,,,,right,1.246435,0,237,237,245,1,ellenfél,KT146,nő,2001.10.07,13,2021-05-13_10h46.36.846,ranlexdec,2020.2.5,Win32,60
,,,,,,,,,,,,left,0.77908,0,238,238,173,1,glosszáz,KT146,nő,2001.10.07,13,2021-05-13_10h46.36.846,ranlexdec,2020.2.5,Win32,60
,,,,,,,,,,,,left,0.986675,0,239,239,40,1,diviz,KT146,nő,2001.10.07,13,2021-05-13_10h46.36.846,ranlexdec,2020.2.5,Win32,60
,,,,,,,,,,,,right,0.789475,0,240,240,12,1,gyapot,KT146,nő,2001.10.07,13,2021-05-13_10h46.36.846,ranlexdec,2020.2.5,Win32,60
,,,,,,,,,,,,left,0.90769,0,241,241,47,1,döföl,KT146,nő,2001.10.07,13,2021-05-13_10h46.36.846,ranlexdec,2020.2.5,Win32,60
,,,,,,,,,,,,right,0.77503,0,242,242,135,1,ion,KT146,nő,2001.10.07,13,2021-05-13_10h46.36.846,ranlexdec,2020.2.5,Win32,60
,,,,,,,,,,,,right,0.93041,0,243,243,200,1,biliárd,KT146,nő,2001.10.07,13,2021-05-13_10h46.36.846,ranlexdec,2020.2.5,Win32,60
,,,,,,,,,,,,left,0.896905,0,244,244,157,1,káder,KT146,nő,2001.10.07,13,2021-05-13_10h46.36.846,ranlexdec,2020.2.5,Win32,60
,,,,,,,,,,,,left,1.38069,0,245,245,50,1,csenyei,KT146,nő,2001.10.07,13,2021-05-13_10h46.36.846,ranlexdec,2020.2.5,Win32,60
,,,,,,,,,,,,right,0.692265,0,246,246,246,1,beton,KT146,nő,2001.10.07,13,2021-05-13_10h46.36.846,ranlexdec,2020.2.5,Win32,60
,,,,,,,,,,,,right,0.66219,0,247,247,132,1,hatalom,KT146,nő,2001.10.07,13,2021-05-13_10h46.36.846,ranlexdec,2020.2.5,Win32,60
,,,,,,,,,,,,right,0.76307,0,248,248,57,1,lejmol,KT146,nő,2001.10.07,13,2021-05-13_10h46.36.846,ranlexdec,2020.2.5,Win32,60
,,,,,,,,,,,,right,0.604665,0,249,249,10,1,nárcisz,KT146,nő,2001.10.07,13,2021-05-13_10h46.36.846,ranlexdec,2020.2.5,Win32,60
