ready2_2.keys,ready2_2.rt,ready2.keys,ready2.rt,key_resp.keys,key_resp.rt,key_resp_3.keys,key_resp_3.rt,key_resp_2.keys,key_resp_2.rt,ready3.keys,ready3.rt,resp.keys,resp.rt,withinBlock.thisRepN,withinBlock.thisTrialN,withinBlock.thisN,withinBlock.thisIndex,withinBlock.ran,word,Azonosító,Az Ön neme,Születési éve,Hány évet töltött az iskolapadban (egyetemet is beleértve),date,expName,psychopyVersion,OS,frameRate
right,30.039105,right,36.74523,right,1.098945,left,1.37845,left,2.380475,right,13.70561,right,1.680385,0,0,0,211,1,tábornagy,KT110,nő,2001,13,2021-05-13_08h25.44.325,ranlexdec,2020.2.5,Win32,60
,,,,,,,,,,,,left,1.21289,0,1,1,102,1,pentez,KT110,nő,2001,13,2021-05-13_08h25.44.325,ranlexdec,2020.2.5,Win32,60
,,,,,,,,,,,,left,2.0652,0,2,2,164,1,kurzivál,KT110,nő,2001,13,2021-05-13_08h25.44.325,ranlexdec,2020.2.5,Win32,60
,,,,,,,,,,,,right,0.588065,0,3,3,144,1,rövid,KT110,nő,2001,13,2021-05-13_08h25.44.325,ranlexdec,2020.2.5,Win32,60
,,,,,,,,,,,,left,1.314065,0,4,4,240,1,áradmány,KT110,nő,2001,13,2021-05-13_08h25.44.325,ranlexdec,2020.2.5,Win32,60
,,,,,,,,,,,,right,1.631,0,5,5,18,1,csapattest,KT110,nő,2001,13,2021-05-13_08h25.44.325,ranlexdec,2020.2.5,Win32,60
,,,,,,,,,,,,right,0.78147,0,6,6,129,1,turné,KT110,nő,2001,13,2021-05-13_08h25.44.325,ranlexdec,2020.2.5,Win32,60
,,,,,,,,,,,,left,0.853265,0,7,7,77,1,egant,KT110,nő,2001,13,2021-05-13_08h25.44.325,ranlexdec,2020.2.5,Win32,60
,,,,,,,,,,,,right,1.280775,0,8,8,123,1,luftballon,KT110,nő,2001,13,2021-05-13_08h25.44.325,ranlexdec,2020.2.5,Win32,60
,,,,,,,,,,,,right,0.79901,0,9,9,149,1,anorák,KT110,nő,2001,13,2021-05-13_08h25.44.325,ranlexdec,2020.2.5,Win32,60
,,,,,,,,,,,,left,0.972195,0,10,10,186,1,piláf,KT110,nő,2001,13,2021-05-13_08h25.44.325,ranlexdec,2020.2.5,Win32,60
,,,,,,,,,,,,right,1.165175,0,11,11,249,1,kencéz,KT110,nő,2001,13,2021-05-13_08h25.44.325,ranlexdec,2020.2.5,Win32,60
,,,,,,,,,,,,left,0.886415,0,12,12,142,1,storítő,KT110,nő,2001,13,2021-05-13_08h25.44.325,ranlexdec,2020.2.5,Win32,60
,,,,,,,,,,,,right,1.074535,0,13,13,32,1,genom,KT110,nő,2001,13,2021-05-13_08h25.44.325,ranlexdec,2020.2.5,Win32,60
,,,,,,,,,,,,right,0.84778,0,14,14,39,1,könnyelmű,KT110,nő,2001,13,2021-05-13_08h25.44.325,ranlexdec,2020.2.5,Win32,60
,,,,,,,,,,,,left,1.698885,0,15,15,195,1,petél,KT110,nő,2001,13,2021-05-13_08h25.44.325,ranlexdec,2020.2.5,Win32,60
,,,,,,,,,,,,right,1.26343,0,16,16,88,1,pohár,KT110,nő,2001,13,2021-05-13_08h25.44.325,ranlexdec,2020.2.5,Win32,60
,,,,,,,,,,,,left,1.571895,0,17,17,155,1,megpadék,KT110,nő,2001,13,2021-05-13_08h25.44.325,ranlexdec,2020.2.5,Win32,60
,,,,,,,,,,,,left,0.797675,0,18,18,62,1,bizmut,KT110,nő,2001,13,2021-05-13_08h25.44.325,ranlexdec,2020.2.5,Win32,60
,,,,,,,,,,,,left,1.150435,0,19,19,229,1,lemesség,KT110,nő,2001,13,2021-05-13_08h25.44.325,ranlexdec,2020.2.5,Win32,60
,,,,,,,,,,,,right,0.786,0,20,20,33,1,kalcium,KT110,nő,2001,13,2021-05-13_08h25.44.325,ranlexdec,2020.2.5,Win32,60
,,,,,,,,,,,,left,0.859225,0,21,21,174,1,cianid,KT110,nő,2001,13,2021-05-13_08h25.44.325,ranlexdec,2020.2.5,Win32,60
,,,,,,,,,,,,right,0.69599,0,22,22,48,1,reagál,KT110,nő,2001,13,2021-05-13_08h25.44.325,ranlexdec,2020.2.5,Win32,60
,,,,,,,,,,,,left,0.86609,0,23,23,137,1,aragas,KT110,nő,2001,13,2021-05-13_08h25.44.325,ranlexdec,2020.2.5,Win32,60
,,,,,,,,,,,,right,1.94001,0,24,24,202,1,abszint,KT110,nő,2001,13,2021-05-13_08h25.44.325,ranlexdec,2020.2.5,Win32,60
,,,,,,,,,,,,right,1.01635,0,25,25,212,1,farkasbab,KT110,nő,2001,13,2021-05-13_08h25.44.325,ranlexdec,2020.2.5,Win32,60
,,,,,,,,,,,,right,1.281805,0,26,26,156,1,lazúroz,KT110,nő,2001,13,2021-05-13_08h25.44.325,ranlexdec,2020.2.5,Win32,60
,,,,,,,,,,,,left,2.21755,0,27,27,120,1,komál,KT110,nő,2001,13,2021-05-13_08h25.44.325,ranlexdec,2020.2.5,Win32,60
,,,,,,,,,,,,left,0.738435,0,28,28,162,1,nimbus,KT110,nő,2001,13,2021-05-13_08h25.44.325,ranlexdec,2020.2.5,Win32,60
,,,,,,,,,,,,right,0.89372,0,29,29,113,1,piktogram,KT110,nő,2001,13,2021-05-13_08h25.44.325,ranlexdec,2020.2.5,Win32,60
,,,,,,,,,,,,right,0.61923,0,30,30,114,1,tartalom,KT110,nő,2001,13,2021-05-13_08h25.44.325,ranlexdec,2020.2.5,Win32,60
,,,,,,,,,,,,right,2.363935,0,31,31,87,1,forrpont,KT110,nő,2001,13,2021-05-13_08h25.44.325,ranlexdec,2020.2.5,Win32,60
,,,,,,,,,,,,right,0.998805,0,32,32,169,1,komoly,KT110,nő,2001,13,2021-05-13_08h25.44.325,ranlexdec,2020.2.5,Win32,60
,,,,,,,,,,,,left,1.61701,0,33,33,147,1,referál,KT110,nő,2001,13,2021-05-13_08h25.44.325,ranlexdec,2020.2.5,Win32,60
,,,,,,,,,,,,left,0.91985,0,34,34,72,1,mihálóz,KT110,nő,2001,13,2021-05-13_08h25.44.325,ranlexdec,2020.2.5,Win32,60
,,,,,,,,,,,,left,2.782785,0,35,35,172,1,kettősfém,KT110,nő,2001,13,2021-05-13_08h25.44.325,ranlexdec,2020.2.5,Win32,60
,,,,,,,,,,,,left,0.76499,0,36,36,26,1,aurult,KT110,nő,2001,13,2021-05-13_08h25.44.325,ranlexdec,2020.2.5,Win32,60
,,,,,,,,,,,,right,1.23622,0,37,37,222,1,nyersarany,KT110,nő,2001,13,2021-05-13_08h25.44.325,ranlexdec,2020.2.5,Win32,60
,,,,,,,,,,,,left,0.78106,0,38,38,203,1,abeti,KT110,nő,2001,13,2021-05-13_08h25.44.325,ranlexdec,2020.2.5,Win32,60
,,,,,,,,,,,,right,0.752855,0,39,39,247,1,ausztrál,KT110,nő,2001,13,2021-05-13_08h25.44.325,ranlexdec,2020.2.5,Win32,60
,,,,,,,,,,,,right,0.696905,0,40,40,86,1,jármű,KT110,nő,2001,13,2021-05-13_08h25.44.325,ranlexdec,2020.2.5,Win32,60
,,,,,,,,,,,,right,0.803675,0,41,41,154,1,keresztény,KT110,nő,2001,13,2021-05-13_08h25.44.325,ranlexdec,2020.2.5,Win32,60
,,,,,,,,,,,,left,0.82093,0,42,42,141,1,hider,KT110,nő,2001,13,2021-05-13_08h25.44.325,ranlexdec,2020.2.5,Win32,60
,,,,,,,,,,,,right,0.913705,0,43,43,37,1,lukaszt,KT110,nő,2001,13,2021-05-13_08h25.44.325,ranlexdec,2020.2.5,Win32,60
,,,,,,,,,,,,right,0.71594,0,44,44,122,1,égitest,KT110,nő,2001,13,2021-05-13_08h25.44.325,ranlexdec,2020.2.5,Win32,60
,,,,,,,,,,,,right,0.635285,0,45,45,161,1,példakép,KT110,nő,2001,13,2021-05-13_08h25.44.325,ranlexdec,2020.2.5,Win32,60
,,,,,,,,,,,,right,0.58075,0,46,46,55,1,látszik,KT110,nő,2001,13,2021-05-13_08h25.44.325,ranlexdec,2020.2.5,Win32,60
,,,,,,,,,,,,right,2.035315,0,47,47,209,1,hidegház,KT110,nő,2001,13,2021-05-13_08h25.44.325,ranlexdec,2020.2.5,Win32,60
,,,,,,,,,,,,left,1.315895,0,48,48,204,1,kocskesi,KT110,nő,2001,13,2021-05-13_08h25.44.325,ranlexdec,2020.2.5,Win32,60
,,,,,,,,,,,,right,0.665995,0,49,49,7,1,űrlap,KT110,nő,2001,13,2021-05-13_08h25.44.325,ranlexdec,2020.2.5,Win32,60
,,,,,,,,,,,,right,0.699565,0,50,50,92,1,lágyék,KT110,nő,2001,13,2021-05-13_08h25.44.325,ranlexdec,2020.2.5,Win32,60
,,,,,,,,,,,,left,0.714565,0,51,51,49,1,ernyak,KT110,nő,2001,13,2021-05-13_08h25.44.325,ranlexdec,2020.2.5,Win32,60
,,,,,,,,,,,,right,1.300755,0,52,52,111,1,koenzim,KT110,nő,2001,13,2021-05-13_08h25.44.325,ranlexdec,2020.2.5,Win32,60
,,,,,,,,,,,,right,0.664615,0,53,53,187,1,testnedv,KT110,nő,2001,13,2021-05-13_08h25.44.325,ranlexdec,2020.2.5,Win32,60
,,,,,,,,,,,,left,1.601935,0,54,54,180,1,adszorbens,KT110,nő,2001,13,2021-05-13_08h25.44.325,ranlexdec,2020.2.5,Win32,60
,,,,,,,,,,,,right,0.730435,0,55,55,11,1,viszkóz,KT110,nő,2001,13,2021-05-13_08h25.44.325,ranlexdec,2020.2.5,Win32,60
,,,,,,,,,,,,right,0.89951,0,56,56,10,1,nárcisz,KT110,nő,2001,13,2021-05-13_08h25.44.325,ranlexdec,2020.2.5,Win32,60
,,,,,,,,,,,,right,1.720725,0,57,57,22,1,arzénsav,KT110,nő,2001,13,2021-05-13_08h25.44.325,ranlexdec,2020.2.5,Win32,60
,,,,,,,,,,,,right,0.69822,0,58,58,85,1,glükóz,KT110,nő,2001,13,2021-05-13_08h25.44.325,ranlexdec,2020.2.5,Win32,60
,,,,,,,,,,,,right,1.25267,0,59,59,74,1,püffeszt,KT110,nő,2001,13,2021-05-13_08h25.44.325,ranlexdec,2020.2.5,Win32,60
,,,,,,,,,,,,left,1.141745,0,60,60,112,1,méhezter,KT110,nő,2001,13,2021-05-13_08h25.44.325,ranlexdec,2020.2.5,Win32,60
,,,,,,,,,,,,right,0.60898,0,61,61,170,1,változik,KT110,nő,2001,13,2021-05-13_08h25.44.325,ranlexdec,2020.2.5,Win32,60
,,,,,,,,,,,,right,0.749045,0,62,62,159,1,elegy,KT110,nő,2001,13,2021-05-13_08h25.44.325,ranlexdec,2020.2.5,Win32,60
,,,,,,,,,,,,left,0.696755,0,63,63,52,1,kunyai,KT110,nő,2001,13,2021-05-13_08h25.44.325,ranlexdec,2020.2.5,Win32,60
,,,,,,,,,,,,left,1.05712,0,64,64,167,1,vabank,KT110,nő,2001,13,2021-05-13_08h25.44.325,ranlexdec,2020.2.5,Win32,60
,,,,,,,,,,,,left,1.419275,0,65,65,76,1,jegedény,KT110,nő,2001,13,2021-05-13_08h25.44.325,ranlexdec,2020.2.5,Win32,60
,,,,,,,,,,,,left,1.43037,0,66,66,91,1,tajtásos,KT110,nő,2001,13,2021-05-13_08h25.44.325,ranlexdec,2020.2.5,Win32,60
,,,,,,,,,,,,right,0.707215,0,67,67,185,1,gyülemlik,KT110,nő,2001,13,2021-05-13_08h25.44.325,ranlexdec,2020.2.5,Win32,60
,,,,,,,,,,,,left,1.11713,0,68,68,23,1,szelégül,KT110,nő,2001,13,2021-05-13_08h25.44.325,ranlexdec,2020.2.5,Win32,60
,,,,,,,,,,,,left,1.000625,0,69,69,121,1,aggófű,KT110,nő,2001,13,2021-05-13_08h25.44.325,ranlexdec,2020.2.5,Win32,60
,,,,,,,,,,,,right,0.568435,0,70,70,213,1,eszköz,KT110,nő,2001,13,2021-05-13_08h25.44.325,ranlexdec,2020.2.5,Win32,60
,,,,,,,,,,,,right,0.65038,0,71,71,210,1,karakter,KT110,nő,2001,13,2021-05-13_08h25.44.325,ranlexdec,2020.2.5,Win32,60
,,,,,,,,,,,,left,3.164955,0,72,72,198,1,lublika,KT110,nő,2001,13,2021-05-13_08h25.44.325,ranlexdec,2020.2.5,Win32,60
,,,,,,,,,,,,right,1.07384,0,73,73,146,1,kondenzcsík,KT110,nő,2001,13,2021-05-13_08h25.44.325,ranlexdec,2020.2.5,Win32,60
,,,,,,,,,,,,right,0.517155,0,74,74,151,1,komplex,KT110,nő,2001,13,2021-05-13_08h25.44.325,ranlexdec,2020.2.5,Win32,60
,,,,,,,,,,,,left,0.79932,0,75,75,36,1,tröshet,KT110,nő,2001,13,2021-05-13_08h25.44.325,ranlexdec,2020.2.5,Win32,60
,,,,,,,,,,,,left,1.07401,0,76,76,24,1,kosi,KT110,nő,2001,13,2021-05-13_08h25.44.325,ranlexdec,2020.2.5,Win32,60
,,,,,,,,,,,,right,0.66608,0,77,77,184,1,profit,KT110,nő,2001,13,2021-05-13_08h25.44.325,ranlexdec,2020.2.5,Win32,60
,,,,,,,,,,,,right,0.81959,0,78,78,182,1,nagyszámú,KT110,nő,2001,13,2021-05-13_08h25.44.325,ranlexdec,2020.2.5,Win32,60
,,,,,,,,,,,,left,0.8205,0,79,79,207,1,diffamál,KT110,nő,2001,13,2021-05-13_08h25.44.325,ranlexdec,2020.2.5,Win32,60
,,,,,,,,,,,,right,0.550655,0,80,80,80,1,darab,KT110,nő,2001,13,2021-05-13_08h25.44.325,ranlexdec,2020.2.5,Win32,60
,,,,,,,,,,,,right,0.99711,0,81,81,27,1,sporthorgász,KT110,nő,2001,13,2021-05-13_08h25.44.325,ranlexdec,2020.2.5,Win32,60
,,,,,,,,,,,,left,0.815235,0,82,82,82,1,kvéker,KT110,nő,2001,13,2021-05-13_08h25.44.325,ranlexdec,2020.2.5,Win32,60
,,,,,,,,,,,,left,0.986255,0,83,83,190,1,rámáz,KT110,nő,2001,13,2021-05-13_08h25.44.325,ranlexdec,2020.2.5,Win32,60
,,,,,,,,,,,,right,0.514255,0,84,84,43,1,közhely,KT110,nő,2001,13,2021-05-13_08h25.44.325,ranlexdec,2020.2.5,Win32,60
,,,,,,,,,,,,left,0.783175,0,85,85,218,1,tortya,KT110,nő,2001,13,2021-05-13_08h25.44.325,ranlexdec,2020.2.5,Win32,60
,,,,,,,,,,,,right,0.58266,0,86,86,160,1,százalék,KT110,nő,2001,13,2021-05-13_08h25.44.325,ranlexdec,2020.2.5,Win32,60
,,,,,,,,,,,,left,1.58058,0,87,87,42,1,összalaj,KT110,nő,2001,13,2021-05-13_08h25.44.325,ranlexdec,2020.2.5,Win32,60
,,,,,,,,,,,,left,0.96619,0,88,88,71,1,extuál,KT110,nő,2001,13,2021-05-13_08h25.44.325,ranlexdec,2020.2.5,Win32,60
,,,,,,,,,,,,right,0.792545,0,89,89,177,1,pereg,KT110,nő,2001,13,2021-05-13_08h25.44.325,ranlexdec,2020.2.5,Win32,60
,,,,,,,,,,,,right,0.755815,0,90,90,89,1,szokik,KT110,nő,2001,13,2021-05-13_08h25.44.325,ranlexdec,2020.2.5,Win32,60
,,,,,,,,,,,,left,0.967785,0,91,91,217,1,ifjít,KT110,nő,2001,13,2021-05-13_08h25.44.325,ranlexdec,2020.2.5,Win32,60
,,,,,,,,,,,,left,1.349415,0,92,92,242,1,rekvizit,KT110,nő,2001,13,2021-05-13_08h25.44.325,ranlexdec,2020.2.5,Win32,60
,,,,,,,,,,,,left,0.789035,0,93,93,50,1,csenyei,KT110,nő,2001,13,2021-05-13_08h25.44.325,ranlexdec,2020.2.5,Win32,60
,,,,,,,,,,,,left,1.00953,0,94,94,139,1,vároló,KT110,nő,2001,13,2021-05-13_08h25.44.325,ranlexdec,2020.2.5,Win32,60
,,,,,,,,,,,,right,0.62915,0,95,95,34,1,csengettyű,KT110,nő,2001,13,2021-05-13_08h25.44.325,ranlexdec,2020.2.5,Win32,60
,,,,,,,,,,,,right,1.16388,0,96,96,96,1,alfél,KT110,nő,2001,13,2021-05-13_08h25.44.325,ranlexdec,2020.2.5,Win32,60
,,,,,,,,,,,,right,0.76996,0,97,97,19,1,tangózik,KT110,nő,2001,13,2021-05-13_08h25.44.325,ranlexdec,2020.2.5,Win32,60
,,,,,,,,,,,,right,0.65814,0,98,98,238,1,bolgár,KT110,nő,2001,13,2021-05-13_08h25.44.325,ranlexdec,2020.2.5,Win32,60
,,,,,,,,,,,,left,1.064735,0,99,99,150,1,orront,KT110,nő,2001,13,2021-05-13_08h25.44.325,ranlexdec,2020.2.5,Win32,60
,,,,,,,,,,,,right,0.88759,0,100,100,53,1,puritán,KT110,nő,2001,13,2021-05-13_08h25.44.325,ranlexdec,2020.2.5,Win32,60
,,,,,,,,,,,,left,1.08091,0,101,101,30,1,dádá,KT110,nő,2001,13,2021-05-13_08h25.44.325,ranlexdec,2020.2.5,Win32,60
,,,,,,,,,,,,left,1.54905,0,102,102,232,1,tropikus,KT110,nő,2001,13,2021-05-13_08h25.44.325,ranlexdec,2020.2.5,Win32,60
,,,,,,,,,,,,left,1.135765,0,103,103,16,1,cséltás,KT110,nő,2001,13,2021-05-13_08h25.44.325,ranlexdec,2020.2.5,Win32,60
,,,,,,,,,,,,right,0.548215,0,104,104,67,1,szegény,KT110,nő,2001,13,2021-05-13_08h25.44.325,ranlexdec,2020.2.5,Win32,60
,,,,,,,,,,,,right,0.84933,0,105,105,104,1,dolog,KT110,nő,2001,13,2021-05-13_08h25.44.325,ranlexdec,2020.2.5,Win32,60
,,,,,,,,,,,,right,0.70137,0,106,106,47,1,döföl,KT110,nő,2001,13,2021-05-13_08h25.44.325,ranlexdec,2020.2.5,Win32,60
,,,,,,,,,,,,left,0.75181,0,107,107,83,1,vonzum,KT110,nő,2001,13,2021-05-13_08h25.44.325,ranlexdec,2020.2.5,Win32,60
,,,,,,,,,,,,left,0.7536,0,108,108,234,1,fertilis,KT110,nő,2001,13,2021-05-13_08h25.44.325,ranlexdec,2020.2.5,Win32,60
,,,,,,,,,,,,right,0.86555,0,109,109,25,1,reform,KT110,nő,2001,13,2021-05-13_08h25.44.325,ranlexdec,2020.2.5,Win32,60
,,,,,,,,,,,,right,0.87223,0,110,110,105,1,tököl,KT110,nő,2001,13,2021-05-13_08h25.44.325,ranlexdec,2020.2.5,Win32,60
,,,,,,,,,,,,right,0.89737,0,111,111,51,1,bajuszfű,KT110,nő,2001,13,2021-05-13_08h25.44.325,ranlexdec,2020.2.5,Win32,60
,,,,,,,,,,,,right,0.666165,0,112,112,179,1,töredék,KT110,nő,2001,13,2021-05-13_08h25.44.325,ranlexdec,2020.2.5,Win32,60
,,,,,,,,,,,,right,0.499015,0,113,113,196,1,dolgozik,KT110,nő,2001,13,2021-05-13_08h25.44.325,ranlexdec,2020.2.5,Win32,60
,,,,,,,,,,,,left,0.74735,0,114,114,75,1,karnogó,KT110,nő,2001,13,2021-05-13_08h25.44.325,ranlexdec,2020.2.5,Win32,60
,,,,,,,,,,,,right,1.959465,0,115,115,69,1,gerencsér,KT110,nő,2001,13,2021-05-13_08h25.44.325,ranlexdec,2020.2.5,Win32,60
,,,,,,,,,,,,right,0.826185,0,116,116,175,1,szilikát,KT110,nő,2001,13,2021-05-13_08h25.44.325,ranlexdec,2020.2.5,Win32,60
,,,,,,,,,,,,left,1.065155,0,117,117,2,1,gyásos,KT110,nő,2001,13,2021-05-13_08h25.44.325,ranlexdec,2020.2.5,Win32,60
,,,,,,,,,,,,left,0.98338,0,118,118,97,1,vésségi,KT110,nő,2001,13,2021-05-13_08h25.44.325,ranlexdec,2020.2.5,Win32,60
,,,,,,,,,,,,left,2.24192,0,119,119,153,1,kontrapunkt,KT110,nő,2001,13,2021-05-13_08h25.44.325,ranlexdec,2020.2.5,Win32,60
,,,,,,,,,,,,right,0.65562,0,120,120,140,1,diktátor,KT110,nő,2001,13,2021-05-13_08h25.44.325,ranlexdec,2020.2.5,Win32,60
,,,,,,,,,,,,right,0.70262,0,121,121,236,1,csatázik,KT110,nő,2001,13,2021-05-13_08h25.44.325,ranlexdec,2020.2.5,Win32,60
,,,,,,,,,,,,right,2.31315,0,122,122,128,1,csüggedez,KT110,nő,2001,13,2021-05-13_08h25.44.325,ranlexdec,2020.2.5,Win32,60
,,,,,,,,,,,,right,0.890755,0,123,123,193,1,bacon,KT110,nő,2001,13,2021-05-13_08h25.44.325,ranlexdec,2020.2.5,Win32,60
,,,,,,,,,,,,right,0.974025,0,124,124,199,1,ború,KT110,nő,2001,13,2021-05-13_08h25.44.325,ranlexdec,2020.2.5,Win32,60
,,,,,,,,,,,,left,1.74729,0,125,125,117,1,ószeven,KT110,nő,2001,13,2021-05-13_08h25.44.325,ranlexdec,2020.2.5,Win32,60
,,,,,,,,,,,,right,0.84511,0,126,126,90,1,orális,KT110,nő,2001,13,2021-05-13_08h25.44.325,ranlexdec,2020.2.5,Win32,60
,,,,,,,,,,,,right,0.843675,0,127,127,215,1,neoprén,KT110,nő,2001,13,2021-05-13_08h25.44.325,ranlexdec,2020.2.5,Win32,60
,,,,,,,,,,,,left,0.88653,0,128,128,103,1,szabotró,KT110,nő,2001,13,2021-05-13_08h25.44.325,ranlexdec,2020.2.5,Win32,60
,,,,,,,,,,,,right,0.66833,0,129,129,171,1,újgazdag,KT110,nő,2001,13,2021-05-13_08h25.44.325,ranlexdec,2020.2.5,Win32,60
,,,,,,,,,,,,left,0.957595,0,130,130,205,1,mimézis,KT110,nő,2001,13,2021-05-13_08h25.44.325,ranlexdec,2020.2.5,Win32,60
,,,,,,,,,,,,right,0.70116,0,131,131,248,1,örmény,KT110,nő,2001,13,2021-05-13_08h25.44.325,ranlexdec,2020.2.5,Win32,60
,,,,,,,,,,,,right,0.986885,0,132,132,235,1,transzplantál,KT110,nő,2001,13,2021-05-13_08h25.44.325,ranlexdec,2020.2.5,Win32,60
,,,,,,,,,,,,right,0.634755,0,133,133,188,1,sugár,KT110,nő,2001,13,2021-05-13_08h25.44.325,ranlexdec,2020.2.5,Win32,60
,,,,,,,,,,,,left,0.81115,0,134,134,94,1,rotor,KT110,nő,2001,13,2021-05-13_08h25.44.325,ranlexdec,2020.2.5,Win32,60
,,,,,,,,,,,,right,0.71979,0,135,135,200,1,biliárd,KT110,nő,2001,13,2021-05-13_08h25.44.325,ranlexdec,2020.2.5,Win32,60
,,,,,,,,,,,,right,1.391225,0,136,136,239,1,donhuán,KT110,nő,2001,13,2021-05-13_08h25.44.325,ranlexdec,2020.2.5,Win32,60
,,,,,,,,,,,,right,0.58438,0,137,137,116,1,árus,KT110,nő,2001,13,2021-05-13_08h25.44.325,ranlexdec,2020.2.5,Win32,60
,,,,,,,,,,,,right,0.649945,0,138,138,12,1,gyapot,KT110,nő,2001,13,2021-05-13_08h25.44.325,ranlexdec,2020.2.5,Win32,60
,,,,,,,,,,,,right,0.7604,0,139,139,58,1,barát,KT110,nő,2001,13,2021-05-13_08h25.44.325,ranlexdec,2020.2.5,Win32,60
,,,,,,,,,,,,left,0.704865,0,140,140,143,1,rojtoz,KT110,nő,2001,13,2021-05-13_08h25.44.325,ranlexdec,2020.2.5,Win32,60
,,,,,,,,,,,,right,0.761645,0,141,141,108,1,konyrúd,KT110,nő,2001,13,2021-05-13_08h25.44.325,ranlexdec,2020.2.5,Win32,60
,,,,,,,,,,,,right,0.776125,0,142,142,227,1,kötődik,KT110,nő,2001,13,2021-05-13_08h25.44.325,ranlexdec,2020.2.5,Win32,60
,,,,,,,,,,,,right,0.46782,0,143,143,245,1,ellenfél,KT110,nő,2001,13,2021-05-13_08h25.44.325,ranlexdec,2020.2.5,Win32,60
,,,,,,,,,,,,right,0.568015,0,144,144,31,1,iszlám,KT110,nő,2001,13,2021-05-13_08h25.44.325,ranlexdec,2020.2.5,Win32,60
,,,,,,,,,,,,right,0.8862,0,145,145,243,1,dipeptid,KT110,nő,2001,13,2021-05-13_08h25.44.325,ranlexdec,2020.2.5,Win32,60
,,,,,,,,,,,,left,0.90128,0,146,146,40,1,diviz,KT110,nő,2001,13,2021-05-13_08h25.44.325,ranlexdec,2020.2.5,Win32,60
,,,,,,,,,,,,left,0.86798,0,147,147,118,1,libling,KT110,nő,2001,13,2021-05-13_08h25.44.325,ranlexdec,2020.2.5,Win32,60
,,,,,,,,,,,,left,2.50047,0,148,148,15,1,pauzál,KT110,nő,2001,13,2021-05-13_08h25.44.325,ranlexdec,2020.2.5,Win32,60
,,,,,,,,,,,,right,1.535175,0,149,149,35,1,türemlik,KT110,nő,2001,13,2021-05-13_08h25.44.325,ranlexdec,2020.2.5,Win32,60
,,,,,,,,,,,,right,0.834645,0,150,150,20,1,század,KT110,nő,2001,13,2021-05-13_08h25.44.325,ranlexdec,2020.2.5,Win32,60
,,,,,,,,,,,,right,0.7011,0,151,151,244,1,kislány,KT110,nő,2001,13,2021-05-13_08h25.44.325,ranlexdec,2020.2.5,Win32,60
,,,,,,,,,,,,left,1.03448,0,152,152,17,1,magmatit,KT110,nő,2001,13,2021-05-13_08h25.44.325,ranlexdec,2020.2.5,Win32,60
,,,,,,,,,,,,right,0.817875,0,153,153,241,1,kárpit,KT110,nő,2001,13,2021-05-13_08h25.44.325,ranlexdec,2020.2.5,Win32,60
,,,,,,,,,,,,right,0.56757,0,154,154,61,1,régész,KT110,nő,2001,13,2021-05-13_08h25.44.325,ranlexdec,2020.2.5,Win32,60
,,,,,,,,,,,,right,1.00071,0,155,155,110,1,időszak,KT110,nő,2001,13,2021-05-13_08h25.44.325,ranlexdec,2020.2.5,Win32,60
,,,,,,,,,,,,right,1.175965,0,156,156,221,1,törődik,KT110,nő,2001,13,2021-05-13_08h25.44.325,ranlexdec,2020.2.5,Win32,60
,,,,,,,,,,,,left,1.96515,0,157,157,70,1,lakotthely,KT110,nő,2001,13,2021-05-13_08h25.44.325,ranlexdec,2020.2.5,Win32,60
,,,,,,,,,,,,right,0.758725,0,158,158,135,1,ion,KT110,nő,2001,13,2021-05-13_08h25.44.325,ranlexdec,2020.2.5,Win32,60
,,,,,,,,,,,,left,1.183795,0,159,159,219,1,szimboló,KT110,nő,2001,13,2021-05-13_08h25.44.325,ranlexdec,2020.2.5,Win32,60
,,,,,,,,,,,,right,0.689055,0,160,160,152,1,rakódik,KT110,nő,2001,13,2021-05-13_08h25.44.325,ranlexdec,2020.2.5,Win32,60
,,,,,,,,,,,,left,0.737185,0,161,161,5,1,retta,KT110,nő,2001,13,2021-05-13_08h25.44.325,ranlexdec,2020.2.5,Win32,60
,,,,,,,,,,,,left,0.722995,0,162,162,224,1,truccol,KT110,nő,2001,13,2021-05-13_08h25.44.325,ranlexdec,2020.2.5,Win32,60
,,,,,,,,,,,,left,0.95659,0,163,163,197,1,krakéler,KT110,nő,2001,13,2021-05-13_08h25.44.325,ranlexdec,2020.2.5,Win32,60
,,,,,,,,,,,,left,0.670675,0,164,164,95,1,skubizik,KT110,nő,2001,13,2021-05-13_08h25.44.325,ranlexdec,2020.2.5,Win32,60
,,,,,,,,,,,,right,0.68471,0,165,165,14,1,selypít,KT110,nő,2001,13,2021-05-13_08h25.44.325,ranlexdec,2020.2.5,Win32,60
,,,,,,,,,,,,right,0.600785,0,166,166,194,1,végbél,KT110,nő,2001,13,2021-05-13_08h25.44.325,ranlexdec,2020.2.5,Win32,60
,,,,,,,,,,,,left,1.301195,0,167,167,4,1,viszonvád,KT110,nő,2001,13,2021-05-13_08h25.44.325,ranlexdec,2020.2.5,Win32,60
,,,,,,,,,,,,right,0.57357,0,168,168,45,1,népszerű,KT110,nő,2001,13,2021-05-13_08h25.44.325,ranlexdec,2020.2.5,Win32,60
,,,,,,,,,,,,right,0.659095,0,169,169,165,1,lépték,KT110,nő,2001,13,2021-05-13_08h25.44.325,ranlexdec,2020.2.5,Win32,60
,,,,,,,,,,,,left,1.29711,0,170,170,84,1,kúpol,KT110,nő,2001,13,2021-05-13_08h25.44.325,ranlexdec,2020.2.5,Win32,60
,,,,,,,,,,,,right,0.548705,0,171,171,214,1,tenger,KT110,nő,2001,13,2021-05-13_08h25.44.325,ranlexdec,2020.2.5,Win32,60
,,,,,,,,,,,,left,0.84776,0,172,172,225,1,bajadér,KT110,nő,2001,13,2021-05-13_08h25.44.325,ranlexdec,2020.2.5,Win32,60
,,,,,,,,,,,,right,1.30696,0,173,173,99,1,sárgaréz,KT110,nő,2001,13,2021-05-13_08h25.44.325,ranlexdec,2020.2.5,Win32,60
,,,,,,,,,,,,left,0.781955,0,174,174,106,1,lalláz,KT110,nő,2001,13,2021-05-13_08h25.44.325,ranlexdec,2020.2.5,Win32,60
,,,,,,,,,,,,right,0.72073,0,175,175,138,1,gyűjtemény,KT110,nő,2001,13,2021-05-13_08h25.44.325,ranlexdec,2020.2.5,Win32,60
,,,,,,,,,,,,right,0.788305,0,176,176,230,1,délceg,KT110,nő,2001,13,2021-05-13_08h25.44.325,ranlexdec,2020.2.5,Win32,60
,,,,,,,,,,,,left,2.9719,0,177,177,60,1,bárányfark,KT110,nő,2001,13,2021-05-13_08h25.44.325,ranlexdec,2020.2.5,Win32,60
,,,,,,,,,,,,right,0.902225,0,178,178,56,1,kanalaz,KT110,nő,2001,13,2021-05-13_08h25.44.325,ranlexdec,2020.2.5,Win32,60
,,,,,,,,,,,,left,0.737185,0,179,179,46,1,kurzív,KT110,nő,2001,13,2021-05-13_08h25.44.325,ranlexdec,2020.2.5,Win32,60
,,,,,,,,,,,,right,1.04993,0,180,180,183,1,színpad,KT110,nő,2001,13,2021-05-13_08h25.44.325,ranlexdec,2020.2.5,Win32,60
,,,,,,,,,,,,left,0.85243,0,181,181,29,1,novagár,KT110,nő,2001,13,2021-05-13_08h25.44.325,ranlexdec,2020.2.5,Win32,60
,,,,,,,,,,,,left,0.931755,0,182,182,173,1,glosszáz,KT110,nő,2001,13,2021-05-13_08h25.44.325,ranlexdec,2020.2.5,Win32,60
,,,,,,,,,,,,left,0.98186,0,183,183,191,1,hitódó,KT110,nő,2001,13,2021-05-13_08h25.44.325,ranlexdec,2020.2.5,Win32,60
,,,,,,,,,,,,right,0.684445,0,184,184,79,1,extrém,KT110,nő,2001,13,2021-05-13_08h25.44.325,ranlexdec,2020.2.5,Win32,60
,,,,,,,,,,,,right,0.67589,0,185,185,208,1,lélek,KT110,nő,2001,13,2021-05-13_08h25.44.325,ranlexdec,2020.2.5,Win32,60
,,,,,,,,,,,,right,0.703415,0,186,186,228,1,tarol,KT110,nő,2001,13,2021-05-13_08h25.44.325,ranlexdec,2020.2.5,Win32,60
,,,,,,,,,,,,left,0.776405,0,187,187,133,1,hübrisz,KT110,nő,2001,13,2021-05-13_08h25.44.325,ranlexdec,2020.2.5,Win32,60
,,,,,,,,,,,,right,0.606135,0,188,188,124,1,alkalom,KT110,nő,2001,13,2021-05-13_08h25.44.325,ranlexdec,2020.2.5,Win32,60
,,,,,,,,,,,,right,0.788245,0,189,189,59,1,ómagyar,KT110,nő,2001,13,2021-05-13_08h25.44.325,ranlexdec,2020.2.5,Win32,60
,,,,,,,,,,,,right,0.63533,0,190,190,78,1,törékeny,KT110,nő,2001,13,2021-05-13_08h25.44.325,ranlexdec,2020.2.5,Win32,60
,,,,,,,,,,,,right,0.667955,0,191,191,220,1,csontdarab,KT110,nő,2001,13,2021-05-13_08h25.44.325,ranlexdec,2020.2.5,Win32,60
,,,,,,,,,,,,right,0.94299,0,192,192,63,1,viszkózus,KT110,nő,2001,13,2021-05-13_08h25.44.325,ranlexdec,2020.2.5,Win32,60
,,,,,,,,,,,,right,0.604405,0,193,193,9,1,hajlik,KT110,nő,2001,13,2021-05-13_08h25.44.325,ranlexdec,2020.2.5,Win32,60
,,,,,,,,,,,,right,0.731855,0,194,194,148,1,mellényzseb,KT110,nő,2001,13,2021-05-13_08h25.44.325,ranlexdec,2020.2.5,Win32,60
,,,,,,,,,,,,right,0.614175,0,195,195,100,1,balközép,KT110,nő,2001,13,2021-05-13_08h25.44.325,ranlexdec,2020.2.5,Win32,60
,,,,,,,,,,,,right,0.450435,0,196,196,64,1,hálózsák,KT110,nő,2001,13,2021-05-13_08h25.44.325,ranlexdec,2020.2.5,Win32,60
,,,,,,,,,,,,right,0.46657,0,197,197,21,1,heveny,KT110,nő,2001,13,2021-05-13_08h25.44.325,ranlexdec,2020.2.5,Win32,60
,,,,,,,,,,,,right,0.64775,0,198,198,237,1,forgórész,KT110,nő,2001,13,2021-05-13_08h25.44.325,ranlexdec,2020.2.5,Win32,60
,,,,,,,,,,,,right,0.86573,0,199,199,101,1,nukleon,KT110,nő,2001,13,2021-05-13_08h25.44.325,ranlexdec,2020.2.5,Win32,60
,,,,,,,,,,,,right,1.10136,0,200,200,57,1,lejmol,KT110,nő,2001,13,2021-05-13_08h25.44.325,ranlexdec,2020.2.5,Win32,60
,,,,,,,,,,,,left,1.009885,0,201,201,131,1,vetézmés,KT110,nő,2001,13,2021-05-13_08h25.44.325,ranlexdec,2020.2.5,Win32,60
,,,,,,,,,,,,right,0.57611,0,202,202,231,1,igény,KT110,nő,2001,13,2021-05-13_08h25.44.325,ranlexdec,2020.2.5,Win32,60
,,,,,,,,,,,,left,0.88019,0,203,203,145,1,kurtít,KT110,nő,2001,13,2021-05-13_08h25.44.325,ranlexdec,2020.2.5,Win32,60
,,,,,,,,,,,,left,0.949475,0,204,204,125,1,úszamos,KT110,nő,2001,13,2021-05-13_08h25.44.325,ranlexdec,2020.2.5,Win32,60
,,,,,,,,,,,,right,0.74793,0,205,205,168,1,grafikon,KT110,nő,2001,13,2021-05-13_08h25.44.325,ranlexdec,2020.2.5,Win32,60
,,,,,,,,,,,,left,0.8639,0,206,206,157,1,káder,KT110,nő,2001,13,2021-05-13_08h25.44.325,ranlexdec,2020.2.5,Win32,60
,,,,,,,,,,,,right,0.71553,0,207,207,178,1,sziszeg,KT110,nő,2001,13,2021-05-13_08h25.44.325,ranlexdec,2020.2.5,Win32,60
,,,,,,,,,,,,right,2.09884,0,208,208,216,1,svábtök,KT110,nő,2001,13,2021-05-13_08h25.44.325,ranlexdec,2020.2.5,Win32,60
,,,,,,,,,,,,left,0.698465,0,209,209,119,1,cugehőr,KT110,nő,2001,13,2021-05-13_08h25.44.325,ranlexdec,2020.2.5,Win32,60
,,,,,,,,,,,,right,0.49716,0,210,210,8,1,kulcscsont,KT110,nő,2001,13,2021-05-13_08h25.44.325,ranlexdec,2020.2.5,Win32,60
,,,,,,,,,,,,left,1.38073,0,211,211,163,1,kollapszus,KT110,nő,2001,13,2021-05-13_08h25.44.325,ranlexdec,2020.2.5,Win32,60
,,,,,,,,,,,,right,1.19937,0,212,212,0,1,irány,KT110,nő,2001,13,2021-05-13_08h25.44.325,ranlexdec,2020.2.5,Win32,60
,,,,,,,,,,,,right,0.799755,0,213,213,98,1,mítosz,KT110,nő,2001,13,2021-05-13_08h25.44.325,ranlexdec,2020.2.5,Win32,60
,,,,,,,,,,,,left,0.966535,0,214,214,13,1,törköly,KT110,nő,2001,13,2021-05-13_08h25.44.325,ranlexdec,2020.2.5,Win32,60
,,,,,,,,,,,,right,0.70332,0,215,215,226,1,szalicil,KT110,nő,2001,13,2021-05-13_08h25.44.325,ranlexdec,2020.2.5,Win32,60
,,,,,,,,,,,,right,0.54072,0,216,216,68,1,kitin,KT110,nő,2001,13,2021-05-13_08h25.44.325,ranlexdec,2020.2.5,Win32,60
,,,,,,,,,,,,left,0.998465,0,217,217,166,1,retálhit,KT110,nő,2001,13,2021-05-13_08h25.44.325,ranlexdec,2020.2.5,Win32,60
,,,,,,,,,,,,left,1.481975,0,218,218,233,1,templomoz,KT110,nő,2001,13,2021-05-13_08h25.44.325,ranlexdec,2020.2.5,Win32,60
,,,,,,,,,,,,right,0.848305,0,219,219,41,1,nagybeteg,KT110,nő,2001,13,2021-05-13_08h25.44.325,ranlexdec,2020.2.5,Win32,60
,,,,,,,,,,,,right,0.599435,0,220,220,126,1,rejtőzik,KT110,nő,2001,13,2021-05-13_08h25.44.325,ranlexdec,2020.2.5,Win32,60
,,,,,,,,,,,,right,0.684685,0,221,221,132,1,hatalom,KT110,nő,2001,13,2021-05-13_08h25.44.325,ranlexdec,2020.2.5,Win32,60
,,,,,,,,,,,,right,1.13066,0,222,222,189,1,konverzál,KT110,nő,2001,13,2021-05-13_08h25.44.325,ranlexdec,2020.2.5,Win32,60
,,,,,,,,,,,,right,1.353,0,223,223,44,1,ingváll,KT110,nő,2001,13,2021-05-13_08h25.44.325,ranlexdec,2020.2.5,Win32,60
,,,,,,,,,,,,left,0.905715,0,224,224,136,1,rücsök,KT110,nő,2001,13,2021-05-13_08h25.44.325,ranlexdec,2020.2.5,Win32,60
,,,,,,,,,,,,left,0.949255,0,225,225,223,1,árstop,KT110,nő,2001,13,2021-05-13_08h25.44.325,ranlexdec,2020.2.5,Win32,60
,,,,,,,,,,,,right,0.69818,0,226,226,28,1,gazdag,KT110,nő,2001,13,2021-05-13_08h25.44.325,ranlexdec,2020.2.5,Win32,60
,,,,,,,,,,,,left,0.88266,0,227,227,3,1,tömzsa,KT110,nő,2001,13,2021-05-13_08h25.44.325,ranlexdec,2020.2.5,Win32,60
,,,,,,,,,,,,left,0.74254,0,228,228,192,1,norvend,KT110,nő,2001,13,2021-05-13_08h25.44.325,ranlexdec,2020.2.5,Win32,60
,,,,,,,,,,,,left,0.8735,0,229,229,115,1,fajansz,KT110,nő,2001,13,2021-05-13_08h25.44.325,ranlexdec,2020.2.5,Win32,60
,,,,,,,,,,,,left,0.83979,0,230,230,65,1,infimum,KT110,nő,2001,13,2021-05-13_08h25.44.325,ranlexdec,2020.2.5,Win32,60
,,,,,,,,,,,,left,0.766015,0,231,231,134,1,móringol,KT110,nő,2001,13,2021-05-13_08h25.44.325,ranlexdec,2020.2.5,Win32,60
,,,,,,,,,,,,left,0.83651,0,232,232,109,1,vényegő,KT110,nő,2001,13,2021-05-13_08h25.44.325,ranlexdec,2020.2.5,Win32,60
,,,,,,,,,,,,left,0.715365,0,233,233,93,1,kilukát,KT110,nő,2001,13,2021-05-13_08h25.44.325,ranlexdec,2020.2.5,Win32,60
,,,,,,,,,,,,right,0.98192,0,234,234,176,1,bélyeg,KT110,nő,2001,13,2021-05-13_08h25.44.325,ranlexdec,2020.2.5,Win32,60
,,,,,,,,,,,,right,1.1222,0,235,235,54,1,fürkész,KT110,nő,2001,13,2021-05-13_08h25.44.325,ranlexdec,2020.2.5,Win32,60
,,,,,,,,,,,,left,0.7489,0,236,236,127,1,rozintem,KT110,nő,2001,13,2021-05-13_08h25.44.325,ranlexdec,2020.2.5,Win32,60
,,,,,,,,,,,,right,1.569705,0,237,237,73,1,olaj,KT110,nő,2001,13,2021-05-13_08h25.44.325,ranlexdec,2020.2.5,Win32,60
,,,,,,,,,,,,left,1.185215,0,238,238,81,1,takorák,KT110,nő,2001,13,2021-05-13_08h25.44.325,ranlexdec,2020.2.5,Win32,60
,,,,,,,,,,,,right,0.76543,0,239,239,158,1,hidroxid,KT110,nő,2001,13,2021-05-13_08h25.44.325,ranlexdec,2020.2.5,Win32,60
,,,,,,,,,,,,right,0.74837,0,240,240,246,1,beton,KT110,nő,2001,13,2021-05-13_08h25.44.325,ranlexdec,2020.2.5,Win32,60
,,,,,,,,,,,,left,0.872185,0,241,241,1,1,csapdáz,KT110,nő,2001,13,2021-05-13_08h25.44.325,ranlexdec,2020.2.5,Win32,60
,,,,,,,,,,,,left,0.86457,0,242,242,38,1,zomogyi,KT110,nő,2001,13,2021-05-13_08h25.44.325,ranlexdec,2020.2.5,Win32,60
,,,,,,,,,,,,right,0.589985,0,243,243,6,1,csüggeszt,KT110,nő,2001,13,2021-05-13_08h25.44.325,ranlexdec,2020.2.5,Win32,60
,,,,,,,,,,,,right,0.782895,0,244,244,130,1,derít,KT110,nő,2001,13,2021-05-13_08h25.44.325,ranlexdec,2020.2.5,Win32,60
,,,,,,,,,,,,left,0.68166,0,245,245,66,1,parkkói,KT110,nő,2001,13,2021-05-13_08h25.44.325,ranlexdec,2020.2.5,Win32,60
,,,,,,,,,,,,right,0.79049,0,246,246,206,1,horizont,KT110,nő,2001,13,2021-05-13_08h25.44.325,ranlexdec,2020.2.5,Win32,60
,,,,,,,,,,,,left,0.782095,0,247,247,181,1,dohorpák,KT110,nő,2001,13,2021-05-13_08h25.44.325,ranlexdec,2020.2.5,Win32,60
,,,,,,,,,,,,right,0.84746,0,248,248,201,1,szempont,KT110,nő,2001,13,2021-05-13_08h25.44.325,ranlexdec,2020.2.5,Win32,60
,,,,,,,,,,,,left,0.736035,0,249,249,107,1,kelől,KT110,nő,2001,13,2021-05-13_08h25.44.325,ranlexdec,2020.2.5,Win32,60
