ready2_2.keys,ready2_2.rt,ready2.keys,ready2.rt,key_resp.keys,key_resp.rt,key_resp_3.keys,key_resp_3.rt,key_resp_2.keys,key_resp_2.rt,ready3.keys,ready3.rt,resp.keys,resp.rt,withinBlock.thisRepN,withinBlock.thisTrialN,withinBlock.thisN,withinBlock.thisIndex,withinBlock.ran,word,Azonosító,Az Ön neme,Születési éve,Hány évet töltött az iskolapadban (egyetemet is beleértve),date,expName,psychopyVersion,OS,frameRate
space,28.914905,space,28.264805,right,3.053055,left,0.809165,left,2.13965,space,10.882575,left,2.965225,0,0,0,195,1,petél,KT234,nő,1994.01.29.,18,2021-05-14_13h44.35.254,ranlexdec,2020.2.5,Win32,60
,,,,,,,,,,,,left,4.736165,0,1,1,82,1,kvéker,KT234,nő,1994.01.29.,18,2021-05-14_13h44.35.254,ranlexdec,2020.2.5,Win32,60
,,,,,,,,,,,,right,1.156825,0,2,2,247,1,ausztrál,KT234,nő,1994.01.29.,18,2021-05-14_13h44.35.254,ranlexdec,2020.2.5,Win32,60
,,,,,,,,,,,,right,0.79477,0,3,3,132,1,hatalom,KT234,nő,1994.01.29.,18,2021-05-14_13h44.35.254,ranlexdec,2020.2.5,Win32,60
,,,,,,,,,,,,right,0.923345,0,4,4,152,1,rakódik,KT234,nő,1994.01.29.,18,2021-05-14_13h44.35.254,ranlexdec,2020.2.5,Win32,60
,,,,,,,,,,,,right,0.79411,0,5,5,110,1,időszak,KT234,nő,1994.01.29.,18,2021-05-14_13h44.35.254,ranlexdec,2020.2.5,Win32,60
,,,,,,,,,,,,right,0.77498,0,6,6,210,1,karakter,KT234,nő,1994.01.29.,18,2021-05-14_13h44.35.254,ranlexdec,2020.2.5,Win32,60
,,,,,,,,,,,,left,1.190835,0,7,7,49,1,ernyak,KT234,nő,1994.01.29.,18,2021-05-14_13h44.35.254,ranlexdec,2020.2.5,Win32,60
,,,,,,,,,,,,left,1.69801,0,8,8,219,1,szimboló,KT234,nő,1994.01.29.,18,2021-05-14_13h44.35.254,ranlexdec,2020.2.5,Win32,60
,,,,,,,,,,,,left,2.710605,0,9,9,93,1,kilukát,KT234,nő,1994.01.29.,18,2021-05-14_13h44.35.254,ranlexdec,2020.2.5,Win32,60
,,,,,,,,,,,,left,1.71947,0,10,10,191,1,hitódó,KT234,nő,1994.01.29.,18,2021-05-14_13h44.35.254,ranlexdec,2020.2.5,Win32,60
,,,,,,,,,,,,left,2.120065,0,11,11,190,1,rámáz,KT234,nő,1994.01.29.,18,2021-05-14_13h44.35.254,ranlexdec,2020.2.5,Win32,60
,,,,,,,,,,,,right,0.80626,0,12,12,248,1,örmény,KT234,nő,1994.01.29.,18,2021-05-14_13h44.35.254,ranlexdec,2020.2.5,Win32,60
,,,,,,,,,,,,right,0.916515,0,13,13,186,1,piláf,KT234,nő,1994.01.29.,18,2021-05-14_13h44.35.254,ranlexdec,2020.2.5,Win32,60
,,,,,,,,,,,,right,1.242465,0,14,14,232,1,tropikus,KT234,nő,1994.01.29.,18,2021-05-14_13h44.35.254,ranlexdec,2020.2.5,Win32,60
,,,,,,,,,,,,right,0.89693,0,15,15,15,1,pauzál,KT234,nő,1994.01.29.,18,2021-05-14_13h44.35.254,ranlexdec,2020.2.5,Win32,60
,,,,,,,,,,,,right,0.627505,0,16,16,79,1,extrém,KT234,nő,1994.01.29.,18,2021-05-14_13h44.35.254,ranlexdec,2020.2.5,Win32,60
,,,,,,,,,,,,right,1.086755,0,17,17,243,1,dipeptid,KT234,nő,1994.01.29.,18,2021-05-14_13h44.35.254,ranlexdec,2020.2.5,Win32,60
,,,,,,,,,,,,left,1.20782,0,18,18,29,1,novagár,KT234,nő,1994.01.29.,18,2021-05-14_13h44.35.254,ranlexdec,2020.2.5,Win32,60
,,,,,,,,,,,,left,1.627525,0,19,19,26,1,aurult,KT234,nő,1994.01.29.,18,2021-05-14_13h44.35.254,ranlexdec,2020.2.5,Win32,60
,,,,,,,,,,,,right,0.697175,0,20,20,78,1,törékeny,KT234,nő,1994.01.29.,18,2021-05-14_13h44.35.254,ranlexdec,2020.2.5,Win32,60
,,,,,,,,,,,,right,0.791885,0,21,21,158,1,hidroxid,KT234,nő,1994.01.29.,18,2021-05-14_13h44.35.254,ranlexdec,2020.2.5,Win32,60
,,,,,,,,,,,,right,0.736935,0,22,22,64,1,hálózsák,KT234,nő,1994.01.29.,18,2021-05-14_13h44.35.254,ranlexdec,2020.2.5,Win32,60
,,,,,,,,,,,,left,2.301815,0,23,23,65,1,infimum,KT234,nő,1994.01.29.,18,2021-05-14_13h44.35.254,ranlexdec,2020.2.5,Win32,60
,,,,,,,,,,,,right,1.95585,0,24,24,121,1,aggófű,KT234,nő,1994.01.29.,18,2021-05-14_13h44.35.254,ranlexdec,2020.2.5,Win32,60
,,,,,,,,,,,,left,1.193935,0,25,25,109,1,vényegő,KT234,nő,1994.01.29.,18,2021-05-14_13h44.35.254,ranlexdec,2020.2.5,Win32,60
,,,,,,,,,,,,right,0.81437,0,26,26,178,1,sziszeg,KT234,nő,1994.01.29.,18,2021-05-14_13h44.35.254,ranlexdec,2020.2.5,Win32,60
,,,,,,,,,,,,right,0.69392,0,27,27,231,1,igény,KT234,nő,1994.01.29.,18,2021-05-14_13h44.35.254,ranlexdec,2020.2.5,Win32,60
,,,,,,,,,,,,right,0.659935,0,28,28,124,1,alkalom,KT234,nő,1994.01.29.,18,2021-05-14_13h44.35.254,ranlexdec,2020.2.5,Win32,60
,,,,,,,,,,,,right,1.05199,0,29,29,123,1,luftballon,KT234,nő,1994.01.29.,18,2021-05-14_13h44.35.254,ranlexdec,2020.2.5,Win32,60
,,,,,,,,,,,,right,0.6615,0,30,30,221,1,törődik,KT234,nő,1994.01.29.,18,2021-05-14_13h44.35.254,ranlexdec,2020.2.5,Win32,60
,,,,,,,,,,,,right,1.593875,0,31,31,236,1,csatázik,KT234,nő,1994.01.29.,18,2021-05-14_13h44.35.254,ranlexdec,2020.2.5,Win32,60
,,,,,,,,,,,,left,1.276725,0,32,32,127,1,rozintem,KT234,nő,1994.01.29.,18,2021-05-14_13h44.35.254,ranlexdec,2020.2.5,Win32,60
,,,,,,,,,,,,right,0.913955,0,33,33,55,1,látszik,KT234,nő,1994.01.29.,18,2021-05-14_13h44.35.254,ranlexdec,2020.2.5,Win32,60
,,,,,,,,,,,,right,0.868025,0,34,34,92,1,lágyék,KT234,nő,1994.01.29.,18,2021-05-14_13h44.35.254,ranlexdec,2020.2.5,Win32,60
,,,,,,,,,,,,right,0.829025,0,35,35,226,1,szalicil,KT234,nő,1994.01.29.,18,2021-05-14_13h44.35.254,ranlexdec,2020.2.5,Win32,60
,,,,,,,,,,,,right,0.62883,0,36,36,90,1,orális,KT234,nő,1994.01.29.,18,2021-05-14_13h44.35.254,ranlexdec,2020.2.5,Win32,60
,,,,,,,,,,,,left,1.040545,0,37,37,125,1,úszamos,KT234,nő,1994.01.29.,18,2021-05-14_13h44.35.254,ranlexdec,2020.2.5,Win32,60
,,,,,,,,,,,,left,1.370215,0,38,38,36,1,tröshet,KT234,nő,1994.01.29.,18,2021-05-14_13h44.35.254,ranlexdec,2020.2.5,Win32,60
,,,,,,,,,,,,right,0.637635,0,39,39,165,1,lépték,KT234,nő,1994.01.29.,18,2021-05-14_13h44.35.254,ranlexdec,2020.2.5,Win32,60
,,,,,,,,,,,,left,1.26169,0,40,40,166,1,retálhit,KT234,nő,1994.01.29.,18,2021-05-14_13h44.35.254,ranlexdec,2020.2.5,Win32,60
,,,,,,,,,,,,right,0.703215,0,41,41,176,1,bélyeg,KT234,nő,1994.01.29.,18,2021-05-14_13h44.35.254,ranlexdec,2020.2.5,Win32,60
,,,,,,,,,,,,right,0.65636,0,42,42,144,1,rövid,KT234,nő,1994.01.29.,18,2021-05-14_13h44.35.254,ranlexdec,2020.2.5,Win32,60
,,,,,,,,,,,,right,1.138835,0,43,43,187,1,testnedv,KT234,nő,1994.01.29.,18,2021-05-14_13h44.35.254,ranlexdec,2020.2.5,Win32,60
,,,,,,,,,,,,right,0.468715,0,44,44,86,1,jármű,KT234,nő,1994.01.29.,18,2021-05-14_13h44.35.254,ranlexdec,2020.2.5,Win32,60
,,,,,,,,,,,,right,0.99433,0,45,45,145,1,kurtít,KT234,nő,1994.01.29.,18,2021-05-14_13h44.35.254,ranlexdec,2020.2.5,Win32,60
,,,,,,,,,,,,right,0.56262,0,46,46,160,1,százalék,KT234,nő,1994.01.29.,18,2021-05-14_13h44.35.254,ranlexdec,2020.2.5,Win32,60
,,,,,,,,,,,,right,1.026255,0,47,47,164,1,kurzivál,KT234,nő,1994.01.29.,18,2021-05-14_13h44.35.254,ranlexdec,2020.2.5,Win32,60
,,,,,,,,,,,,right,0.60805,0,48,48,45,1,népszerű,KT234,nő,1994.01.29.,18,2021-05-14_13h44.35.254,ranlexdec,2020.2.5,Win32,60
,,,,,,,,,,,,left,0.960945,0,49,49,192,1,norvend,KT234,nő,1994.01.29.,18,2021-05-14_13h44.35.254,ranlexdec,2020.2.5,Win32,60
,,,,,,,,,,,,right,0.901345,0,50,50,174,1,cianid,KT234,nő,1994.01.29.,18,2021-05-14_13h44.35.254,ranlexdec,2020.2.5,Win32,60
,,,,,,,,,,,,right,0.96151,0,51,51,228,1,tarol,KT234,nő,1994.01.29.,18,2021-05-14_13h44.35.254,ranlexdec,2020.2.5,Win32,60
,,,,,,,,,,,,right,0.778665,0,52,52,140,1,diktátor,KT234,nő,1994.01.29.,18,2021-05-14_13h44.35.254,ranlexdec,2020.2.5,Win32,60
,,,,,,,,,,,,right,0.780445,0,53,53,62,1,bizmut,KT234,nő,1994.01.29.,18,2021-05-14_13h44.35.254,ranlexdec,2020.2.5,Win32,60
,,,,,,,,,,,,right,0.943645,0,54,54,146,1,kondenzcsík,KT234,nő,1994.01.29.,18,2021-05-14_13h44.35.254,ranlexdec,2020.2.5,Win32,60
,,,,,,,,,,,,right,0.546735,0,55,55,10,1,nárcisz,KT234,nő,1994.01.29.,18,2021-05-14_13h44.35.254,ranlexdec,2020.2.5,Win32,60
,,,,,,,,,,,,right,0.90086,0,56,56,143,1,rojtoz,KT234,nő,1994.01.29.,18,2021-05-14_13h44.35.254,ranlexdec,2020.2.5,Win32,60
,,,,,,,,,,,,right,0.786875,0,57,57,189,1,konverzál,KT234,nő,1994.01.29.,18,2021-05-14_13h44.35.254,ranlexdec,2020.2.5,Win32,60
,,,,,,,,,,,,right,0.83407,0,58,58,206,1,horizont,KT234,nő,1994.01.29.,18,2021-05-14_13h44.35.254,ranlexdec,2020.2.5,Win32,60
,,,,,,,,,,,,left,1.086865,0,59,59,167,1,vabank,KT234,nő,1994.01.29.,18,2021-05-14_13h44.35.254,ranlexdec,2020.2.5,Win32,60
,,,,,,,,,,,,right,0.687945,0,60,60,139,1,vároló,KT234,nő,1994.01.29.,18,2021-05-14_13h44.35.254,ranlexdec,2020.2.5,Win32,60
,,,,,,,,,,,,right,0.94336,0,61,61,113,1,piktogram,KT234,nő,1994.01.29.,18,2021-05-14_13h44.35.254,ranlexdec,2020.2.5,Win32,60
,,,,,,,,,,,,right,0.601435,0,62,62,130,1,derít,KT234,nő,1994.01.29.,18,2021-05-14_13h44.35.254,ranlexdec,2020.2.5,Win32,60
,,,,,,,,,,,,right,0.728255,0,63,63,172,1,kettősfém,KT234,nő,1994.01.29.,18,2021-05-14_13h44.35.254,ranlexdec,2020.2.5,Win32,60
,,,,,,,,,,,,right,1.26049,0,64,64,30,1,dádá,KT234,nő,1994.01.29.,18,2021-05-14_13h44.35.254,ranlexdec,2020.2.5,Win32,60
,,,,,,,,,,,,right,0.61272,0,65,65,99,1,sárgaréz,KT234,nő,1994.01.29.,18,2021-05-14_13h44.35.254,ranlexdec,2020.2.5,Win32,60
,,,,,,,,,,,,right,0.53046,0,66,66,7,1,űrlap,KT234,nő,1994.01.29.,18,2021-05-14_13h44.35.254,ranlexdec,2020.2.5,Win32,60
,,,,,,,,,,,,right,0.616885,0,67,67,208,1,lélek,KT234,nő,1994.01.29.,18,2021-05-14_13h44.35.254,ranlexdec,2020.2.5,Win32,60
,,,,,,,,,,,,right,1.5476,0,68,68,58,1,barát,KT234,nő,1994.01.29.,18,2021-05-14_13h44.35.254,ranlexdec,2020.2.5,Win32,60
,,,,,,,,,,,,right,0.783065,0,69,69,48,1,reagál,KT234,nő,1994.01.29.,18,2021-05-14_13h44.35.254,ranlexdec,2020.2.5,Win32,60
,,,,,,,,,,,,right,0.663135,0,70,70,154,1,keresztény,KT234,nő,1994.01.29.,18,2021-05-14_13h44.35.254,ranlexdec,2020.2.5,Win32,60
,,,,,,,,,,,,left,1.935225,0,71,71,71,1,extuál,KT234,nő,1994.01.29.,18,2021-05-14_13h44.35.254,ranlexdec,2020.2.5,Win32,60
,,,,,,,,,,,,right,0.76438,0,72,72,230,1,délceg,KT234,nő,1994.01.29.,18,2021-05-14_13h44.35.254,ranlexdec,2020.2.5,Win32,60
,,,,,,,,,,,,left,2.345265,0,73,73,197,1,krakéler,KT234,nő,1994.01.29.,18,2021-05-14_13h44.35.254,ranlexdec,2020.2.5,Win32,60
,,,,,,,,,,,,right,0.762795,0,74,74,91,1,tajtásos,KT234,nő,1994.01.29.,18,2021-05-14_13h44.35.254,ranlexdec,2020.2.5,Win32,60
,,,,,,,,,,,,right,1.03399,0,75,75,147,1,referál,KT234,nő,1994.01.29.,18,2021-05-14_13h44.35.254,ranlexdec,2020.2.5,Win32,60
,,,,,,,,,,,,left,1.12117,0,76,76,52,1,kunyai,KT234,nő,1994.01.29.,18,2021-05-14_13h44.35.254,ranlexdec,2020.2.5,Win32,60
,,,,,,,,,,,,right,0.762525,0,77,77,241,1,kárpit,KT234,nő,1994.01.29.,18,2021-05-14_13h44.35.254,ranlexdec,2020.2.5,Win32,60
,,,,,,,,,,,,right,0.62863,0,78,78,246,1,beton,KT234,nő,1994.01.29.,18,2021-05-14_13h44.35.254,ranlexdec,2020.2.5,Win32,60
,,,,,,,,,,,,right,1.013775,0,79,79,182,1,nagyszámú,KT234,nő,1994.01.29.,18,2021-05-14_13h44.35.254,ranlexdec,2020.2.5,Win32,60
,,,,,,,,,,,,left,1.25258,0,80,80,207,1,diffamál,KT234,nő,1994.01.29.,18,2021-05-14_13h44.35.254,ranlexdec,2020.2.5,Win32,60
,,,,,,,,,,,,left,1.085635,0,81,81,16,1,cséltás,KT234,nő,1994.01.29.,18,2021-05-14_13h44.35.254,ranlexdec,2020.2.5,Win32,60
,,,,,,,,,,,,right,0.771675,0,82,82,98,1,mítosz,KT234,nő,1994.01.29.,18,2021-05-14_13h44.35.254,ranlexdec,2020.2.5,Win32,60
,,,,,,,,,,,,right,2.06064,0,83,83,237,1,forgórész,KT234,nő,1994.01.29.,18,2021-05-14_13h44.35.254,ranlexdec,2020.2.5,Win32,60
,,,,,,,,,,,,right,0.658245,0,84,84,177,1,pereg,KT234,nő,1994.01.29.,18,2021-05-14_13h44.35.254,ranlexdec,2020.2.5,Win32,60
,,,,,,,,,,,,right,0.554445,0,85,85,47,1,döföl,KT234,nő,1994.01.29.,18,2021-05-14_13h44.35.254,ranlexdec,2020.2.5,Win32,60
,,,,,,,,,,,,left,1.381865,0,86,86,142,1,storítő,KT234,nő,1994.01.29.,18,2021-05-14_13h44.35.254,ranlexdec,2020.2.5,Win32,60
,,,,,,,,,,,,right,0.71306,0,87,87,88,1,pohár,KT234,nő,1994.01.29.,18,2021-05-14_13h44.35.254,ranlexdec,2020.2.5,Win32,60
,,,,,,,,,,,,right,1.389965,0,88,88,222,1,nyersarany,KT234,nő,1994.01.29.,18,2021-05-14_13h44.35.254,ranlexdec,2020.2.5,Win32,60
,,,,,,,,,,,,right,1.643845,0,89,89,240,1,áradmány,KT234,nő,1994.01.29.,18,2021-05-14_13h44.35.254,ranlexdec,2020.2.5,Win32,60
,,,,,,,,,,,,right,0.582285,0,90,90,169,1,komoly,KT234,nő,1994.01.29.,18,2021-05-14_13h44.35.254,ranlexdec,2020.2.5,Win32,60
,,,,,,,,,,,,right,0.74309,0,91,91,59,1,ómagyar,KT234,nő,1994.01.29.,18,2021-05-14_13h44.35.254,ranlexdec,2020.2.5,Win32,60
,,,,,,,,,,,,left,3.115885,0,92,92,229,1,lemesség,KT234,nő,1994.01.29.,18,2021-05-14_13h44.35.254,ranlexdec,2020.2.5,Win32,60
,,,,,,,,,,,,right,1.153155,0,93,93,216,1,svábtök,KT234,nő,1994.01.29.,18,2021-05-14_13h44.35.254,ranlexdec,2020.2.5,Win32,60
,,,,,,,,,,,,right,0.581935,0,94,94,238,1,bolgár,KT234,nő,1994.01.29.,18,2021-05-14_13h44.35.254,ranlexdec,2020.2.5,Win32,60
,,,,,,,,,,,,right,0.5467,0,95,95,227,1,kötődik,KT234,nő,1994.01.29.,18,2021-05-14_13h44.35.254,ranlexdec,2020.2.5,Win32,60
,,,,,,,,,,,,right,0.949565,0,96,96,87,1,forrpont,KT234,nő,1994.01.29.,18,2021-05-14_13h44.35.254,ranlexdec,2020.2.5,Win32,60
,,,,,,,,,,,,right,0.488755,0,97,97,141,1,hider,KT234,nő,1994.01.29.,18,2021-05-14_13h44.35.254,ranlexdec,2020.2.5,Win32,60
,,,,,,,,,,,,left,1.00321,0,98,98,223,1,árstop,KT234,nő,1994.01.29.,18,2021-05-14_13h44.35.254,ranlexdec,2020.2.5,Win32,60
,,,,,,,,,,,,right,3.249365,0,99,99,224,1,truccol,KT234,nő,1994.01.29.,18,2021-05-14_13h44.35.254,ranlexdec,2020.2.5,Win32,60
,,,,,,,,,,,,right,0.615475,0,100,100,33,1,kalcium,KT234,nő,1994.01.29.,18,2021-05-14_13h44.35.254,ranlexdec,2020.2.5,Win32,60
,,,,,,,,,,,,right,1.03838,0,101,101,8,1,kulcscsont,KT234,nő,1994.01.29.,18,2021-05-14_13h44.35.254,ranlexdec,2020.2.5,Win32,60
,,,,,,,,,,,,right,0.970155,0,102,102,53,1,puritán,KT234,nő,1994.01.29.,18,2021-05-14_13h44.35.254,ranlexdec,2020.2.5,Win32,60
,,,,,,,,,,,,right,1.058805,0,103,103,249,1,kencéz,KT234,nő,1994.01.29.,18,2021-05-14_13h44.35.254,ranlexdec,2020.2.5,Win32,60
,,,,,,,,,,,,right,1.063675,0,104,104,63,1,viszkózus,KT234,nő,1994.01.29.,18,2021-05-14_13h44.35.254,ranlexdec,2020.2.5,Win32,60
,,,,,,,,,,,,right,0.706875,0,105,105,135,1,ion,KT234,nő,1994.01.29.,18,2021-05-14_13h44.35.254,ranlexdec,2020.2.5,Win32,60
,,,,,,,,,,,,right,0.60114,0,106,106,73,1,olaj,KT234,nő,1994.01.29.,18,2021-05-14_13h44.35.254,ranlexdec,2020.2.5,Win32,60
,,,,,,,,,,,,right,1.740365,0,107,107,242,1,rekvizit,KT234,nő,1994.01.29.,18,2021-05-14_13h44.35.254,ranlexdec,2020.2.5,Win32,60
,,,,,,,,,,,,right,0.696305,0,108,108,214,1,tenger,KT234,nő,1994.01.29.,18,2021-05-14_13h44.35.254,ranlexdec,2020.2.5,Win32,60
,,,,,,,,,,,,right,1.760845,0,109,109,96,1,alfél,KT234,nő,1994.01.29.,18,2021-05-14_13h44.35.254,ranlexdec,2020.2.5,Win32,60
,,,,,,,,,,,,left,3.833085,0,110,110,81,1,takorák,KT234,nő,1994.01.29.,18,2021-05-14_13h44.35.254,ranlexdec,2020.2.5,Win32,60
,,,,,,,,,,,,left,1.02403,0,111,111,40,1,diviz,KT234,nő,1994.01.29.,18,2021-05-14_13h44.35.254,ranlexdec,2020.2.5,Win32,60
,,,,,,,,,,,,left,1.225995,0,112,112,24,1,kosi,KT234,nő,1994.01.29.,18,2021-05-14_13h44.35.254,ranlexdec,2020.2.5,Win32,60
,,,,,,,,,,,,right,0.820035,0,113,113,19,1,tangózik,KT234,nő,1994.01.29.,18,2021-05-14_13h44.35.254,ranlexdec,2020.2.5,Win32,60
,,,,,,,,,,,,right,0.744245,0,114,114,74,1,püffeszt,KT234,nő,1994.01.29.,18,2021-05-14_13h44.35.254,ranlexdec,2020.2.5,Win32,60
,,,,,,,,,,,,left,1.26814,0,115,115,66,1,parkkói,KT234,nő,1994.01.29.,18,2021-05-14_13h44.35.254,ranlexdec,2020.2.5,Win32,60
,,,,,,,,,,,,left,3.67274,0,116,116,153,1,kontrapunkt,KT234,nő,1994.01.29.,18,2021-05-14_13h44.35.254,ranlexdec,2020.2.5,Win32,60
,,,,,,,,,,,,right,0.660865,0,117,117,183,1,színpad,KT234,nő,1994.01.29.,18,2021-05-14_13h44.35.254,ranlexdec,2020.2.5,Win32,60
,,,,,,,,,,,,right,0.99571,0,118,118,1,1,csapdáz,KT234,nő,1994.01.29.,18,2021-05-14_13h44.35.254,ranlexdec,2020.2.5,Win32,60
,,,,,,,,,,,,right,1.920645,0,119,119,235,1,transzplantál,KT234,nő,1994.01.29.,18,2021-05-14_13h44.35.254,ranlexdec,2020.2.5,Win32,60
,,,,,,,,,,,,right,0.74777,0,120,120,199,1,ború,KT234,nő,1994.01.29.,18,2021-05-14_13h44.35.254,ranlexdec,2020.2.5,Win32,60
,,,,,,,,,,,,left,1.1282,0,121,121,102,1,pentez,KT234,nő,1994.01.29.,18,2021-05-14_13h44.35.254,ranlexdec,2020.2.5,Win32,60
,,,,,,,,,,,,right,1.380655,0,122,122,6,1,csüggeszt,KT234,nő,1994.01.29.,18,2021-05-14_13h44.35.254,ranlexdec,2020.2.5,Win32,60
,,,,,,,,,,,,left,1.16916,0,123,123,38,1,zomogyi,KT234,nő,1994.01.29.,18,2021-05-14_13h44.35.254,ranlexdec,2020.2.5,Win32,60
,,,,,,,,,,,,right,0.86158,0,124,124,234,1,fertilis,KT234,nő,1994.01.29.,18,2021-05-14_13h44.35.254,ranlexdec,2020.2.5,Win32,60
,,,,,,,,,,,,left,1.39442,0,125,125,137,1,aragas,KT234,nő,1994.01.29.,18,2021-05-14_13h44.35.254,ranlexdec,2020.2.5,Win32,60
,,,,,,,,,,,,left,0.895815,0,126,126,203,1,abeti,KT234,nő,1994.01.29.,18,2021-05-14_13h44.35.254,ranlexdec,2020.2.5,Win32,60
,,,,,,,,,,,,right,0.75402,0,127,127,89,1,szokik,KT234,nő,1994.01.29.,18,2021-05-14_13h44.35.254,ranlexdec,2020.2.5,Win32,60
,,,,,,,,,,,,right,0.937525,0,128,128,11,1,viszkóz,KT234,nő,1994.01.29.,18,2021-05-14_13h44.35.254,ranlexdec,2020.2.5,Win32,60
,,,,,,,,,,,,right,0.603805,0,129,129,159,1,elegy,KT234,nő,1994.01.29.,18,2021-05-14_13h44.35.254,ranlexdec,2020.2.5,Win32,60
,,,,,,,,,,,,left,1.26083,0,130,130,103,1,szabotró,KT234,nő,1994.01.29.,18,2021-05-14_13h44.35.254,ranlexdec,2020.2.5,Win32,60
,,,,,,,,,,,,right,0.639915,0,131,131,188,1,sugár,KT234,nő,1994.01.29.,18,2021-05-14_13h44.35.254,ranlexdec,2020.2.5,Win32,60
,,,,,,,,,,,,left,1.80537,0,132,132,134,1,móringol,KT234,nő,1994.01.29.,18,2021-05-14_13h44.35.254,ranlexdec,2020.2.5,Win32,60
,,,,,,,,,,,,left,0.89261,0,133,133,83,1,vonzum,KT234,nő,1994.01.29.,18,2021-05-14_13h44.35.254,ranlexdec,2020.2.5,Win32,60
,,,,,,,,,,,,right,0.86056,0,134,134,120,1,komál,KT234,nő,1994.01.29.,18,2021-05-14_13h44.35.254,ranlexdec,2020.2.5,Win32,60
,,,,,,,,,,,,right,0.793535,0,135,135,220,1,csontdarab,KT234,nő,1994.01.29.,18,2021-05-14_13h44.35.254,ranlexdec,2020.2.5,Win32,60
,,,,,,,,,,,,right,2.629335,0,136,136,245,1,ellenfél,KT234,nő,1994.01.29.,18,2021-05-14_13h44.35.254,ranlexdec,2020.2.5,Win32,60
,,,,,,,,,,,,left,2.435395,0,137,137,35,1,türemlik,KT234,nő,1994.01.29.,18,2021-05-14_13h44.35.254,ranlexdec,2020.2.5,Win32,60
,,,,,,,,,,,,right,2.935615,0,138,138,217,1,ifjít,KT234,nő,1994.01.29.,18,2021-05-14_13h44.35.254,ranlexdec,2020.2.5,Win32,60
,,,,,,,,,,,,right,0.55313,0,139,139,20,1,század,KT234,nő,1994.01.29.,18,2021-05-14_13h44.35.254,ranlexdec,2020.2.5,Win32,60
,,,,,,,,,,,,right,0.646255,0,140,140,25,1,reform,KT234,nő,1994.01.29.,18,2021-05-14_13h44.35.254,ranlexdec,2020.2.5,Win32,60
,,,,,,,,,,,,right,0.62143,0,141,141,104,1,dolog,KT234,nő,1994.01.29.,18,2021-05-14_13h44.35.254,ranlexdec,2020.2.5,Win32,60
,,,,,,,,,,,,right,0.488105,0,142,142,12,1,gyapot,KT234,nő,1994.01.29.,18,2021-05-14_13h44.35.254,ranlexdec,2020.2.5,Win32,60
,,,,,,,,,,,,right,0.879085,0,143,143,70,1,lakotthely,KT234,nő,1994.01.29.,18,2021-05-14_13h44.35.254,ranlexdec,2020.2.5,Win32,60
,,,,,,,,,,,,right,0.78608,0,144,144,111,1,koenzim,KT234,nő,1994.01.29.,18,2021-05-14_13h44.35.254,ranlexdec,2020.2.5,Win32,60
,,,,,,,,,,,,left,2.536645,0,145,145,97,1,vésségi,KT234,nő,1994.01.29.,18,2021-05-14_13h44.35.254,ranlexdec,2020.2.5,Win32,60
,,,,,,,,,,,,left,1.88411,0,146,146,157,1,káder,KT234,nő,1994.01.29.,18,2021-05-14_13h44.35.254,ranlexdec,2020.2.5,Win32,60
,,,,,,,,,,,,right,0.79029,0,147,147,175,1,szilikát,KT234,nő,1994.01.29.,18,2021-05-14_13h44.35.254,ranlexdec,2020.2.5,Win32,60
,,,,,,,,,,,,right,0.649055,0,148,148,105,1,tököl,KT234,nő,1994.01.29.,18,2021-05-14_13h44.35.254,ranlexdec,2020.2.5,Win32,60
,,,,,,,,,,,,right,0.69686,0,149,149,67,1,szegény,KT234,nő,1994.01.29.,18,2021-05-14_13h44.35.254,ranlexdec,2020.2.5,Win32,60
,,,,,,,,,,,,right,0.612405,0,150,150,28,1,gazdag,KT234,nő,1994.01.29.,18,2021-05-14_13h44.35.254,ranlexdec,2020.2.5,Win32,60
,,,,,,,,,,,,right,1.04785,0,151,151,138,1,gyűjtemény,KT234,nő,1994.01.29.,18,2021-05-14_13h44.35.254,ranlexdec,2020.2.5,Win32,60
,,,,,,,,,,,,right,0.745625,0,152,152,209,1,hidegház,KT234,nő,1994.01.29.,18,2021-05-14_13h44.35.254,ranlexdec,2020.2.5,Win32,60
,,,,,,,,,,,,right,0.53213,0,153,153,170,1,változik,KT234,nő,1994.01.29.,18,2021-05-14_13h44.35.254,ranlexdec,2020.2.5,Win32,60
,,,,,,,,,,,,right,0.692405,0,154,154,56,1,kanalaz,KT234,nő,1994.01.29.,18,2021-05-14_13h44.35.254,ranlexdec,2020.2.5,Win32,60
,,,,,,,,,,,,right,0.64979,0,155,155,43,1,közhely,KT234,nő,1994.01.29.,18,2021-05-14_13h44.35.254,ranlexdec,2020.2.5,Win32,60
,,,,,,,,,,,,right,1.309565,0,156,156,200,1,biliárd,KT234,nő,1994.01.29.,18,2021-05-14_13h44.35.254,ranlexdec,2020.2.5,Win32,60
,,,,,,,,,,,,left,2.035945,0,157,157,77,1,egant,KT234,nő,1994.01.29.,18,2021-05-14_13h44.35.254,ranlexdec,2020.2.5,Win32,60
,,,,,,,,,,,,right,1.174175,0,158,158,133,1,hübrisz,KT234,nő,1994.01.29.,18,2021-05-14_13h44.35.254,ranlexdec,2020.2.5,Win32,60
,,,,,,,,,,,,right,2.113225,0,159,159,27,1,sporthorgász,KT234,nő,1994.01.29.,18,2021-05-14_13h44.35.254,ranlexdec,2020.2.5,Win32,60
,,,,,,,,,,,,left,0.903545,0,160,160,117,1,ószeven,KT234,nő,1994.01.29.,18,2021-05-14_13h44.35.254,ranlexdec,2020.2.5,Win32,60
,,,,,,,,,,,,right,2.570195,0,161,161,13,1,törköly,KT234,nő,1994.01.29.,18,2021-05-14_13h44.35.254,ranlexdec,2020.2.5,Win32,60
,,,,,,,,,,,,right,0.952395,0,162,162,115,1,fajansz,KT234,nő,1994.01.29.,18,2021-05-14_13h44.35.254,ranlexdec,2020.2.5,Win32,60
,,,,,,,,,,,,left,1.212075,0,163,163,205,1,mimézis,KT234,nő,1994.01.29.,18,2021-05-14_13h44.35.254,ranlexdec,2020.2.5,Win32,60
,,,,,,,,,,,,left,1.23157,0,164,164,50,1,csenyei,KT234,nő,1994.01.29.,18,2021-05-14_13h44.35.254,ranlexdec,2020.2.5,Win32,60
,,,,,,,,,,,,right,0.786015,0,165,165,51,1,bajuszfű,KT234,nő,1994.01.29.,18,2021-05-14_13h44.35.254,ranlexdec,2020.2.5,Win32,60
,,,,,,,,,,,,right,0.74828,0,166,166,161,1,példakép,KT234,nő,1994.01.29.,18,2021-05-14_13h44.35.254,ranlexdec,2020.2.5,Win32,60
,,,,,,,,,,,,right,0.92533,0,167,167,244,1,kislány,KT234,nő,1994.01.29.,18,2021-05-14_13h44.35.254,ranlexdec,2020.2.5,Win32,60
,,,,,,,,,,,,right,0.613445,0,168,168,211,1,tábornagy,KT234,nő,1994.01.29.,18,2021-05-14_13h44.35.254,ranlexdec,2020.2.5,Win32,60
,,,,,,,,,,,,right,0.79703,0,169,169,84,1,kúpol,KT234,nő,1994.01.29.,18,2021-05-14_13h44.35.254,ranlexdec,2020.2.5,Win32,60
,,,,,,,,,,,,right,1.091115,0,170,170,128,1,csüggedez,KT234,nő,1994.01.29.,18,2021-05-14_13h44.35.254,ranlexdec,2020.2.5,Win32,60
,,,,,,,,,,,,right,0.7031,0,171,171,185,1,gyülemlik,KT234,nő,1994.01.29.,18,2021-05-14_13h44.35.254,ranlexdec,2020.2.5,Win32,60
,,,,,,,,,,,,right,1.03593,0,172,172,156,1,lazúroz,KT234,nő,1994.01.29.,18,2021-05-14_13h44.35.254,ranlexdec,2020.2.5,Win32,60
,,,,,,,,,,,,right,0.817335,0,173,173,122,1,égitest,KT234,nő,1994.01.29.,18,2021-05-14_13h44.35.254,ranlexdec,2020.2.5,Win32,60
,,,,,,,,,,,,left,1.431885,0,174,174,198,1,lublika,KT234,nő,1994.01.29.,18,2021-05-14_13h44.35.254,ranlexdec,2020.2.5,Win32,60
,,,,,,,,,,,,right,0.6108,0,175,175,126,1,rejtőzik,KT234,nő,1994.01.29.,18,2021-05-14_13h44.35.254,ranlexdec,2020.2.5,Win32,60
,,,,,,,,,,,,left,1.22797,0,176,176,75,1,karnogó,KT234,nő,1994.01.29.,18,2021-05-14_13h44.35.254,ranlexdec,2020.2.5,Win32,60
,,,,,,,,,,,,left,0.91703,0,177,177,106,1,lalláz,KT234,nő,1994.01.29.,18,2021-05-14_13h44.35.254,ranlexdec,2020.2.5,Win32,60
,,,,,,,,,,,,right,0.76715,0,178,178,101,1,nukleon,KT234,nő,1994.01.29.,18,2021-05-14_13h44.35.254,ranlexdec,2020.2.5,Win32,60
,,,,,,,,,,,,right,0.659505,0,179,179,4,1,viszonvád,KT234,nő,1994.01.29.,18,2021-05-14_13h44.35.254,ranlexdec,2020.2.5,Win32,60
,,,,,,,,,,,,left,1.19365,0,180,180,149,1,anorák,KT234,nő,1994.01.29.,18,2021-05-14_13h44.35.254,ranlexdec,2020.2.5,Win32,60
,,,,,,,,,,,,right,1.649685,0,181,181,114,1,tartalom,KT234,nő,1994.01.29.,18,2021-05-14_13h44.35.254,ranlexdec,2020.2.5,Win32,60
,,,,,,,,,,,,right,0.79884,0,182,182,21,1,heveny,KT234,nő,1994.01.29.,18,2021-05-14_13h44.35.254,ranlexdec,2020.2.5,Win32,60
,,,,,,,,,,,,right,0.91218,0,183,183,22,1,arzénsav,KT234,nő,1994.01.29.,18,2021-05-14_13h44.35.254,ranlexdec,2020.2.5,Win32,60
,,,,,,,,,,,,right,1.4736,0,184,184,69,1,gerencsér,KT234,nő,1994.01.29.,18,2021-05-14_13h44.35.254,ranlexdec,2020.2.5,Win32,60
,,,,,,,,,,,,right,1.23438,0,185,185,31,1,iszlám,KT234,nő,1994.01.29.,18,2021-05-14_13h44.35.254,ranlexdec,2020.2.5,Win32,60
,,,,,,,,,,,,left,1.08381,0,186,186,204,1,kocskesi,KT234,nő,1994.01.29.,18,2021-05-14_13h44.35.254,ranlexdec,2020.2.5,Win32,60
,,,,,,,,,,,,right,0.82801,0,187,187,41,1,nagybeteg,KT234,nő,1994.01.29.,18,2021-05-14_13h44.35.254,ranlexdec,2020.2.5,Win32,60
,,,,,,,,,,,,right,0.86225,0,188,188,32,1,genom,KT234,nő,1994.01.29.,18,2021-05-14_13h44.35.254,ranlexdec,2020.2.5,Win32,60
,,,,,,,,,,,,right,1.792475,0,189,189,173,1,glosszáz,KT234,nő,1994.01.29.,18,2021-05-14_13h44.35.254,ranlexdec,2020.2.5,Win32,60
,,,,,,,,,,,,left,1.914375,0,190,190,23,1,szelégül,KT234,nő,1994.01.29.,18,2021-05-14_13h44.35.254,ranlexdec,2020.2.5,Win32,60
,,,,,,,,,,,,right,0.731205,0,191,191,168,1,grafikon,KT234,nő,1994.01.29.,18,2021-05-14_13h44.35.254,ranlexdec,2020.2.5,Win32,60
,,,,,,,,,,,,right,0.730615,0,192,192,196,1,dolgozik,KT234,nő,1994.01.29.,18,2021-05-14_13h44.35.254,ranlexdec,2020.2.5,Win32,60
,,,,,,,,,,,,right,0.619065,0,193,193,9,1,hajlik,KT234,nő,1994.01.29.,18,2021-05-14_13h44.35.254,ranlexdec,2020.2.5,Win32,60
,,,,,,,,,,,,right,1.054515,0,194,194,54,1,fürkész,KT234,nő,1994.01.29.,18,2021-05-14_13h44.35.254,ranlexdec,2020.2.5,Win32,60
,,,,,,,,,,,,right,1.183035,0,195,195,150,1,orront,KT234,nő,1994.01.29.,18,2021-05-14_13h44.35.254,ranlexdec,2020.2.5,Win32,60
,,,,,,,,,,,,right,0.56317,0,196,196,107,1,kelől,KT234,nő,1994.01.29.,18,2021-05-14_13h44.35.254,ranlexdec,2020.2.5,Win32,60
,,,,,,,,,,,,right,0.945325,0,197,197,179,1,töredék,KT234,nő,1994.01.29.,18,2021-05-14_13h44.35.254,ranlexdec,2020.2.5,Win32,60
,,,,,,,,,,,,right,0.640235,0,198,198,37,1,lukaszt,KT234,nő,1994.01.29.,18,2021-05-14_13h44.35.254,ranlexdec,2020.2.5,Win32,60
,,,,,,,,,,,,right,0.51197,0,199,199,201,1,szempont,KT234,nő,1994.01.29.,18,2021-05-14_13h44.35.254,ranlexdec,2020.2.5,Win32,60
,,,,,,,,,,,,right,0.87029,0,200,200,218,1,tortya,KT234,nő,1994.01.29.,18,2021-05-14_13h44.35.254,ranlexdec,2020.2.5,Win32,60
,,,,,,,,,,,,left,1.955945,0,201,201,131,1,vetézmés,KT234,nő,1994.01.29.,18,2021-05-14_13h44.35.254,ranlexdec,2020.2.5,Win32,60
,,,,,,,,,,,,right,0.816405,0,202,202,85,1,glükóz,KT234,nő,1994.01.29.,18,2021-05-14_13h44.35.254,ranlexdec,2020.2.5,Win32,60
,,,,,,,,,,,,right,0.58351,0,203,203,213,1,eszköz,KT234,nő,1994.01.29.,18,2021-05-14_13h44.35.254,ranlexdec,2020.2.5,Win32,60
,,,,,,,,,,,,right,0.98119,0,204,204,171,1,újgazdag,KT234,nő,1994.01.29.,18,2021-05-14_13h44.35.254,ranlexdec,2020.2.5,Win32,60
,,,,,,,,,,,,right,0.651305,0,205,205,151,1,komplex,KT234,nő,1994.01.29.,18,2021-05-14_13h44.35.254,ranlexdec,2020.2.5,Win32,60
,,,,,,,,,,,,right,1.01242,0,206,206,212,1,farkasbab,KT234,nő,1994.01.29.,18,2021-05-14_13h44.35.254,ranlexdec,2020.2.5,Win32,60
,,,,,,,,,,,,left,4.583365,0,207,207,225,1,bajadér,KT234,nő,1994.01.29.,18,2021-05-14_13h44.35.254,ranlexdec,2020.2.5,Win32,60
,,,,,,,,,,,,right,0.842845,0,208,208,44,1,ingváll,KT234,nő,1994.01.29.,18,2021-05-14_13h44.35.254,ranlexdec,2020.2.5,Win32,60
,,,,,,,,,,,,right,0.852875,0,209,209,57,1,lejmol,KT234,nő,1994.01.29.,18,2021-05-14_13h44.35.254,ranlexdec,2020.2.5,Win32,60
,,,,,,,,,,,,left,0.943735,0,210,210,3,1,tömzsa,KT234,nő,1994.01.29.,18,2021-05-14_13h44.35.254,ranlexdec,2020.2.5,Win32,60
,,,,,,,,,,,,left,2.188245,0,211,211,108,1,konyrúd,KT234,nő,1994.01.29.,18,2021-05-14_13h44.35.254,ranlexdec,2020.2.5,Win32,60
,,,,,,,,,,,,right,1.334115,0,212,212,239,1,donhuán,KT234,nő,1994.01.29.,18,2021-05-14_13h44.35.254,ranlexdec,2020.2.5,Win32,60
,,,,,,,,,,,,left,1.975225,0,213,213,112,1,méhezter,KT234,nő,1994.01.29.,18,2021-05-14_13h44.35.254,ranlexdec,2020.2.5,Win32,60
,,,,,,,,,,,,left,2.336535,0,214,214,5,1,retta,KT234,nő,1994.01.29.,18,2021-05-14_13h44.35.254,ranlexdec,2020.2.5,Win32,60
,,,,,,,,,,,,right,0.72633,0,215,215,34,1,csengettyű,KT234,nő,1994.01.29.,18,2021-05-14_13h44.35.254,ranlexdec,2020.2.5,Win32,60
,,,,,,,,,,,,left,1.33126,0,216,216,181,1,dohorpák,KT234,nő,1994.01.29.,18,2021-05-14_13h44.35.254,ranlexdec,2020.2.5,Win32,60
,,,,,,,,,,,,right,3.933075,0,217,217,233,1,templomoz,KT234,nő,1994.01.29.,18,2021-05-14_13h44.35.254,ranlexdec,2020.2.5,Win32,60
,,,,,,,,,,,,right,0.68082,0,218,218,46,1,kurzív,KT234,nő,1994.01.29.,18,2021-05-14_13h44.35.254,ranlexdec,2020.2.5,Win32,60
,,,,,,,,,,,,left,2.658045,0,219,219,42,1,összalaj,KT234,nő,1994.01.29.,18,2021-05-14_13h44.35.254,ranlexdec,2020.2.5,Win32,60
,,,,,,,,,,,,left,3.03342,0,220,220,94,1,rotor,KT234,nő,1994.01.29.,18,2021-05-14_13h44.35.254,ranlexdec,2020.2.5,Win32,60
,,,,,,,,,,,,right,0.68362,0,221,221,80,1,darab,KT234,nő,1994.01.29.,18,2021-05-14_13h44.35.254,ranlexdec,2020.2.5,Win32,60
,,,,,,,,,,,,left,1.05244,0,222,222,2,1,gyásos,KT234,nő,1994.01.29.,18,2021-05-14_13h44.35.254,ranlexdec,2020.2.5,Win32,60
,,,,,,,,,,,,right,1.134775,0,223,223,184,1,profit,KT234,nő,1994.01.29.,18,2021-05-14_13h44.35.254,ranlexdec,2020.2.5,Win32,60
,,,,,,,,,,,,left,1.19888,0,224,224,119,1,cugehőr,KT234,nő,1994.01.29.,18,2021-05-14_13h44.35.254,ranlexdec,2020.2.5,Win32,60
,,,,,,,,,,,,right,0.94464,0,225,225,148,1,mellényzseb,KT234,nő,1994.01.29.,18,2021-05-14_13h44.35.254,ranlexdec,2020.2.5,Win32,60
,,,,,,,,,,,,right,0.82679,0,226,226,194,1,végbél,KT234,nő,1994.01.29.,18,2021-05-14_13h44.35.254,ranlexdec,2020.2.5,Win32,60
,,,,,,,,,,,,right,0.69527,0,227,227,202,1,abszint,KT234,nő,1994.01.29.,18,2021-05-14_13h44.35.254,ranlexdec,2020.2.5,Win32,60
,,,,,,,,,,,,left,3.587785,0,228,228,18,1,csapattest,KT234,nő,1994.01.29.,18,2021-05-14_13h44.35.254,ranlexdec,2020.2.5,Win32,60
,,,,,,,,,,,,right,0.72496,0,229,229,61,1,régész,KT234,nő,1994.01.29.,18,2021-05-14_13h44.35.254,ranlexdec,2020.2.5,Win32,60
,,,,,,,,,,,,right,1.00983,0,230,230,95,1,skubizik,KT234,nő,1994.01.29.,18,2021-05-14_13h44.35.254,ranlexdec,2020.2.5,Win32,60
,,,,,,,,,,,,right,1.22904,0,231,231,17,1,magmatit,KT234,nő,1994.01.29.,18,2021-05-14_13h44.35.254,ranlexdec,2020.2.5,Win32,60
,,,,,,,,,,,,right,0.98398,0,232,232,180,1,adszorbens,KT234,nő,1994.01.29.,18,2021-05-14_13h44.35.254,ranlexdec,2020.2.5,Win32,60
,,,,,,,,,,,,right,0.934925,0,233,233,100,1,balközép,KT234,nő,1994.01.29.,18,2021-05-14_13h44.35.254,ranlexdec,2020.2.5,Win32,60
,,,,,,,,,,,,right,0.811015,0,234,234,215,1,neoprén,KT234,nő,1994.01.29.,18,2021-05-14_13h44.35.254,ranlexdec,2020.2.5,Win32,60
,,,,,,,,,,,,right,0.852815,0,235,235,163,1,kollapszus,KT234,nő,1994.01.29.,18,2021-05-14_13h44.35.254,ranlexdec,2020.2.5,Win32,60
,,,,,,,,,,,,right,1.52717,0,236,236,60,1,bárányfark,KT234,nő,1994.01.29.,18,2021-05-14_13h44.35.254,ranlexdec,2020.2.5,Win32,60
,,,,,,,,,,,,left,1.35316,0,237,237,155,1,megpadék,KT234,nő,1994.01.29.,18,2021-05-14_13h44.35.254,ranlexdec,2020.2.5,Win32,60
,,,,,,,,,,,,right,0.65324,0,238,238,193,1,bacon,KT234,nő,1994.01.29.,18,2021-05-14_13h44.35.254,ranlexdec,2020.2.5,Win32,60
,,,,,,,,,,,,right,0.90838,0,239,239,0,1,irány,KT234,nő,1994.01.29.,18,2021-05-14_13h44.35.254,ranlexdec,2020.2.5,Win32,60
,,,,,,,,,,,,left,1.816105,0,240,240,76,1,jegedény,KT234,nő,1994.01.29.,18,2021-05-14_13h44.35.254,ranlexdec,2020.2.5,Win32,60
,,,,,,,,,,,,right,1.3229,0,241,241,118,1,libling,KT234,nő,1994.01.29.,18,2021-05-14_13h44.35.254,ranlexdec,2020.2.5,Win32,60
,,,,,,,,,,,,right,0.911215,0,242,242,136,1,rücsök,KT234,nő,1994.01.29.,18,2021-05-14_13h44.35.254,ranlexdec,2020.2.5,Win32,60
,,,,,,,,,,,,right,1.14127,0,243,243,68,1,kitin,KT234,nő,1994.01.29.,18,2021-05-14_13h44.35.254,ranlexdec,2020.2.5,Win32,60
,,,,,,,,,,,,right,0.688245,0,244,244,116,1,árus,KT234,nő,1994.01.29.,18,2021-05-14_13h44.35.254,ranlexdec,2020.2.5,Win32,60
,,,,,,,,,,,,right,0.62634,0,245,245,39,1,könnyelmű,KT234,nő,1994.01.29.,18,2021-05-14_13h44.35.254,ranlexdec,2020.2.5,Win32,60
,,,,,,,,,,,,right,0.84402,0,246,246,129,1,turné,KT234,nő,1994.01.29.,18,2021-05-14_13h44.35.254,ranlexdec,2020.2.5,Win32,60
,,,,,,,,,,,,right,0.77756,0,247,247,14,1,selypít,KT234,nő,1994.01.29.,18,2021-05-14_13h44.35.254,ranlexdec,2020.2.5,Win32,60
,,,,,,,,,,,,left,1.227005,0,248,248,72,1,mihálóz,KT234,nő,1994.01.29.,18,2021-05-14_13h44.35.254,ranlexdec,2020.2.5,Win32,60
,,,,,,,,,,,,right,1.090855,0,249,249,162,1,nimbus,KT234,nő,1994.01.29.,18,2021-05-14_13h44.35.254,ranlexdec,2020.2.5,Win32,60
