ready2_2.keys,ready2_2.rt,ready2.keys,ready2.rt,key_resp.keys,key_resp.rt,key_resp_3.keys,key_resp_3.rt,key_resp_2.keys,key_resp_2.rt,ready3.keys,ready3.rt,resp.keys,resp.rt,withinBlock.thisRepN,withinBlock.thisTrialN,withinBlock.thisN,withinBlock.thisIndex,withinBlock.ran,word,Azonosító,Az Ön neme,Születési éve,Hány évet töltött az iskolapadban (egyetemet is beleértve),date,expName,psychopyVersion,OS,frameRate
right,7.38583,right,1.063825,right,0.57539,left,1.038495,left,1.16504,right,5.72215,right,0.77437,0,0,0,58,1,barát,KT233,nő,2000,14,2021-05-14_13h28.39.327,ranlexdec,2020.2.5,Win32,60
,,,,,,,,,,,,left,1.037935,0,1,1,127,1,rozintem,KT233,nő,2000,14,2021-05-14_13h28.39.327,ranlexdec,2020.2.5,Win32,60
,,,,,,,,,,,,left,1.035195,0,2,2,40,1,diviz,KT233,nő,2000,14,2021-05-14_13h28.39.327,ranlexdec,2020.2.5,Win32,60
,,,,,,,,,,,,right,1.10775,0,3,3,99,1,sárgaréz,KT233,nő,2000,14,2021-05-14_13h28.39.327,ranlexdec,2020.2.5,Win32,60
,,,,,,,,,,,,right,4.30284,0,4,4,159,1,elegy,KT233,nő,2000,14,2021-05-14_13h28.39.327,ranlexdec,2020.2.5,Win32,60
,,,,,,,,,,,,right,3.61355,0,5,5,89,1,szokik,KT233,nő,2000,14,2021-05-14_13h28.39.327,ranlexdec,2020.2.5,Win32,60
,,,,,,,,,,,,left,1.896375,0,6,6,42,1,összalaj,KT233,nő,2000,14,2021-05-14_13h28.39.327,ranlexdec,2020.2.5,Win32,60
,,,,,,,,,,,,left,1.10258,0,7,7,218,1,tortya,KT233,nő,2000,14,2021-05-14_13h28.39.327,ranlexdec,2020.2.5,Win32,60
,,,,,,,,,,,,right,1.01553,0,8,8,182,1,nagyszámú,KT233,nő,2000,14,2021-05-14_13h28.39.327,ranlexdec,2020.2.5,Win32,60
,,,,,,,,,,,,left,1.10434,0,9,9,16,1,cséltás,KT233,nő,2000,14,2021-05-14_13h28.39.327,ranlexdec,2020.2.5,Win32,60
,,,,,,,,,,,,right,0.83489,0,10,10,34,1,csengettyű,KT233,nő,2000,14,2021-05-14_13h28.39.327,ranlexdec,2020.2.5,Win32,60
,,,,,,,,,,,,right,0.84415,0,11,11,100,1,balközép,KT233,nő,2000,14,2021-05-14_13h28.39.327,ranlexdec,2020.2.5,Win32,60
,,,,,,,,,,,,right,0.87548,0,12,12,148,1,mellényzseb,KT233,nő,2000,14,2021-05-14_13h28.39.327,ranlexdec,2020.2.5,Win32,60
,,,,,,,,,,,,right,1.971055,0,13,13,233,1,templomoz,KT233,nő,2000,14,2021-05-14_13h28.39.327,ranlexdec,2020.2.5,Win32,60
,,,,,,,,,,,,right,0.742585,0,14,14,59,1,ómagyar,KT233,nő,2000,14,2021-05-14_13h28.39.327,ranlexdec,2020.2.5,Win32,60
,,,,,,,,,,,,left,0.86963,0,15,15,49,1,ernyak,KT233,nő,2000,14,2021-05-14_13h28.39.327,ranlexdec,2020.2.5,Win32,60
,,,,,,,,,,,,right,1.353345,0,16,16,70,1,lakotthely,KT233,nő,2000,14,2021-05-14_13h28.39.327,ranlexdec,2020.2.5,Win32,60
,,,,,,,,,,,,right,0.8649,0,17,17,178,1,sziszeg,KT233,nő,2000,14,2021-05-14_13h28.39.327,ranlexdec,2020.2.5,Win32,60
,,,,,,,,,,,,left,1.103655,0,18,18,197,1,krakéler,KT233,nő,2000,14,2021-05-14_13h28.39.327,ranlexdec,2020.2.5,Win32,60
,,,,,,,,,,,,left,2.30774,0,19,19,232,1,tropikus,KT233,nő,2000,14,2021-05-14_13h28.39.327,ranlexdec,2020.2.5,Win32,60
,,,,,,,,,,,,left,1.28688,0,20,20,189,1,konverzál,KT233,nő,2000,14,2021-05-14_13h28.39.327,ranlexdec,2020.2.5,Win32,60
,,,,,,,,,,,,right,2.656705,0,21,21,80,1,darab,KT233,nő,2000,14,2021-05-14_13h28.39.327,ranlexdec,2020.2.5,Win32,60
,,,,,,,,,,,,left,1.965285,0,22,22,181,1,dohorpák,KT233,nő,2000,14,2021-05-14_13h28.39.327,ranlexdec,2020.2.5,Win32,60
,,,,,,,,,,,,right,1.032665,0,23,23,98,1,mítosz,KT233,nő,2000,14,2021-05-14_13h28.39.327,ranlexdec,2020.2.5,Win32,60
,,,,,,,,,,,,right,0.81973,0,24,24,214,1,tenger,KT233,nő,2000,14,2021-05-14_13h28.39.327,ranlexdec,2020.2.5,Win32,60
,,,,,,,,,,,,right,0.953305,0,25,25,208,1,lélek,KT233,nő,2000,14,2021-05-14_13h28.39.327,ranlexdec,2020.2.5,Win32,60
,,,,,,,,,,,,right,0.80649,0,26,26,56,1,kanalaz,KT233,nő,2000,14,2021-05-14_13h28.39.327,ranlexdec,2020.2.5,Win32,60
,,,,,,,,,,,,right,0.754925,0,27,27,68,1,kitin,KT233,nő,2000,14,2021-05-14_13h28.39.327,ranlexdec,2020.2.5,Win32,60
,,,,,,,,,,,,left,1.589195,0,28,28,51,1,bajuszfű,KT233,nő,2000,14,2021-05-14_13h28.39.327,ranlexdec,2020.2.5,Win32,60
,,,,,,,,,,,,right,0.995815,0,29,29,144,1,rövid,KT233,nő,2000,14,2021-05-14_13h28.39.327,ranlexdec,2020.2.5,Win32,60
,,,,,,,,,,,,right,0.976345,0,30,30,202,1,abszint,KT233,nő,2000,14,2021-05-14_13h28.39.327,ranlexdec,2020.2.5,Win32,60
,,,,,,,,,,,,right,0.8029,0,31,31,9,1,hajlik,KT233,nő,2000,14,2021-05-14_13h28.39.327,ranlexdec,2020.2.5,Win32,60
,,,,,,,,,,,,right,1.44623,0,32,32,87,1,forrpont,KT233,nő,2000,14,2021-05-14_13h28.39.327,ranlexdec,2020.2.5,Win32,60
,,,,,,,,,,,,right,1.782865,0,33,33,173,1,glosszáz,KT233,nő,2000,14,2021-05-14_13h28.39.327,ranlexdec,2020.2.5,Win32,60
,,,,,,,,,,,,left,1.32948,0,34,34,191,1,hitódó,KT233,nő,2000,14,2021-05-14_13h28.39.327,ranlexdec,2020.2.5,Win32,60
,,,,,,,,,,,,right,0.85734,0,35,35,194,1,végbél,KT233,nő,2000,14,2021-05-14_13h28.39.327,ranlexdec,2020.2.5,Win32,60
,,,,,,,,,,,,right,0.830365,0,36,36,129,1,turné,KT233,nő,2000,14,2021-05-14_13h28.39.327,ranlexdec,2020.2.5,Win32,60
,,,,,,,,,,,,right,0.82503,0,37,37,168,1,grafikon,KT233,nő,2000,14,2021-05-14_13h28.39.327,ranlexdec,2020.2.5,Win32,60
,,,,,,,,,,,,left,0.892965,0,38,38,71,1,extuál,KT233,nő,2000,14,2021-05-14_13h28.39.327,ranlexdec,2020.2.5,Win32,60
,,,,,,,,,,,,left,0.893245,0,39,39,103,1,szabotró,KT233,nő,2000,14,2021-05-14_13h28.39.327,ranlexdec,2020.2.5,Win32,60
,,,,,,,,,,,,right,0.82978,0,40,40,156,1,lazúroz,KT233,nő,2000,14,2021-05-14_13h28.39.327,ranlexdec,2020.2.5,Win32,60
,,,,,,,,,,,,right,1.35131,0,41,41,234,1,fertilis,KT233,nő,2000,14,2021-05-14_13h28.39.327,ranlexdec,2020.2.5,Win32,60
,,,,,,,,,,,,right,0.91613,0,42,42,37,1,lukaszt,KT233,nő,2000,14,2021-05-14_13h28.39.327,ranlexdec,2020.2.5,Win32,60
,,,,,,,,,,,,left,0.901965,0,43,43,133,1,hübrisz,KT233,nő,2000,14,2021-05-14_13h28.39.327,ranlexdec,2020.2.5,Win32,60
,,,,,,,,,,,,right,1.06218,0,44,44,13,1,törköly,KT233,nő,2000,14,2021-05-14_13h28.39.327,ranlexdec,2020.2.5,Win32,60
,,,,,,,,,,,,right,0.655345,0,45,45,231,1,igény,KT233,nő,2000,14,2021-05-14_13h28.39.327,ranlexdec,2020.2.5,Win32,60
,,,,,,,,,,,,left,0.879285,0,46,46,119,1,cugehőr,KT233,nő,2000,14,2021-05-14_13h28.39.327,ranlexdec,2020.2.5,Win32,60
,,,,,,,,,,,,right,1.228155,0,47,47,84,1,kúpol,KT233,nő,2000,14,2021-05-14_13h28.39.327,ranlexdec,2020.2.5,Win32,60
,,,,,,,,,,,,right,0.8039,0,48,48,90,1,orális,KT233,nő,2000,14,2021-05-14_13h28.39.327,ranlexdec,2020.2.5,Win32,60
,,,,,,,,,,,,left,0.88103,0,49,49,217,1,ifjít,KT233,nő,2000,14,2021-05-14_13h28.39.327,ranlexdec,2020.2.5,Win32,60
,,,,,,,,,,,,left,0.97777,0,50,50,163,1,kollapszus,KT233,nő,2000,14,2021-05-14_13h28.39.327,ranlexdec,2020.2.5,Win32,60
,,,,,,,,,,,,right,0.94553,0,51,51,158,1,hidroxid,KT233,nő,2000,14,2021-05-14_13h28.39.327,ranlexdec,2020.2.5,Win32,60
,,,,,,,,,,,,right,0.943265,0,52,52,247,1,ausztrál,KT233,nő,2000,14,2021-05-14_13h28.39.327,ranlexdec,2020.2.5,Win32,60
,,,,,,,,,,,,right,0.912945,0,53,53,221,1,törődik,KT233,nő,2000,14,2021-05-14_13h28.39.327,ranlexdec,2020.2.5,Win32,60
,,,,,,,,,,,,right,0.77091,0,54,54,101,1,nukleon,KT233,nő,2000,14,2021-05-14_13h28.39.327,ranlexdec,2020.2.5,Win32,60
,,,,,,,,,,,,left,1.07438,0,55,55,243,1,dipeptid,KT233,nő,2000,14,2021-05-14_13h28.39.327,ranlexdec,2020.2.5,Win32,60
,,,,,,,,,,,,left,1.193435,0,56,56,121,1,aggófű,KT233,nő,2000,14,2021-05-14_13h28.39.327,ranlexdec,2020.2.5,Win32,60
,,,,,,,,,,,,right,1.115945,0,57,57,45,1,népszerű,KT233,nő,2000,14,2021-05-14_13h28.39.327,ranlexdec,2020.2.5,Win32,60
,,,,,,,,,,,,right,0.989735,0,58,58,27,1,sporthorgász,KT233,nő,2000,14,2021-05-14_13h28.39.327,ranlexdec,2020.2.5,Win32,60
,,,,,,,,,,,,left,1.07811,0,59,59,204,1,kocskesi,KT233,nő,2000,14,2021-05-14_13h28.39.327,ranlexdec,2020.2.5,Win32,60
,,,,,,,,,,,,right,0.80229,0,60,60,20,1,század,KT233,nő,2000,14,2021-05-14_13h28.39.327,ranlexdec,2020.2.5,Win32,60
,,,,,,,,,,,,right,0.81981,0,61,61,152,1,rakódik,KT233,nő,2000,14,2021-05-14_13h28.39.327,ranlexdec,2020.2.5,Win32,60
,,,,,,,,,,,,right,0.843285,0,62,62,39,1,könnyelmű,KT233,nő,2000,14,2021-05-14_13h28.39.327,ranlexdec,2020.2.5,Win32,60
,,,,,,,,,,,,right,0.716005,0,63,63,138,1,gyűjtemény,KT233,nő,2000,14,2021-05-14_13h28.39.327,ranlexdec,2020.2.5,Win32,60
,,,,,,,,,,,,left,1.141075,0,64,64,77,1,egant,KT233,nő,2000,14,2021-05-14_13h28.39.327,ranlexdec,2020.2.5,Win32,60
,,,,,,,,,,,,left,0.954255,0,65,65,107,1,kelől,KT233,nő,2000,14,2021-05-14_13h28.39.327,ranlexdec,2020.2.5,Win32,60
,,,,,,,,,,,,right,0.887665,0,66,66,114,1,tartalom,KT233,nő,2000,14,2021-05-14_13h28.39.327,ranlexdec,2020.2.5,Win32,60
,,,,,,,,,,,,right,0.900945,0,67,67,63,1,viszkózus,KT233,nő,2000,14,2021-05-14_13h28.39.327,ranlexdec,2020.2.5,Win32,60
,,,,,,,,,,,,right,1.16475,0,68,68,143,1,rojtoz,KT233,nő,2000,14,2021-05-14_13h28.39.327,ranlexdec,2020.2.5,Win32,60
,,,,,,,,,,,,right,0.90823,0,69,69,149,1,anorák,KT233,nő,2000,14,2021-05-14_13h28.39.327,ranlexdec,2020.2.5,Win32,60
,,,,,,,,,,,,left,0.97235,0,70,70,242,1,rekvizit,KT233,nő,2000,14,2021-05-14_13h28.39.327,ranlexdec,2020.2.5,Win32,60
,,,,,,,,,,,,left,0.88016,0,71,71,82,1,kvéker,KT233,nő,2000,14,2021-05-14_13h28.39.327,ranlexdec,2020.2.5,Win32,60
,,,,,,,,,,,,left,1.630035,0,72,72,195,1,petél,KT233,nő,2000,14,2021-05-14_13h28.39.327,ranlexdec,2020.2.5,Win32,60
,,,,,,,,,,,,left,1.139205,0,73,73,139,1,vároló,KT233,nő,2000,14,2021-05-14_13h28.39.327,ranlexdec,2020.2.5,Win32,60
,,,,,,,,,,,,right,0.925915,0,74,74,210,1,karakter,KT233,nő,2000,14,2021-05-14_13h28.39.327,ranlexdec,2020.2.5,Win32,60
,,,,,,,,,,,,right,1.193725,0,75,75,57,1,lejmol,KT233,nő,2000,14,2021-05-14_13h28.39.327,ranlexdec,2020.2.5,Win32,60
,,,,,,,,,,,,right,0.822045,0,76,76,79,1,extrém,KT233,nő,2000,14,2021-05-14_13h28.39.327,ranlexdec,2020.2.5,Win32,60
,,,,,,,,,,,,right,1.152655,0,77,77,54,1,fürkész,KT233,nő,2000,14,2021-05-14_13h28.39.327,ranlexdec,2020.2.5,Win32,60
,,,,,,,,,,,,right,1.43434,0,78,78,115,1,fajansz,KT233,nő,2000,14,2021-05-14_13h28.39.327,ranlexdec,2020.2.5,Win32,60
,,,,,,,,,,,,left,1.022185,0,79,79,52,1,kunyai,KT233,nő,2000,14,2021-05-14_13h28.39.327,ranlexdec,2020.2.5,Win32,60
,,,,,,,,,,,,right,0.721445,0,80,80,193,1,bacon,KT233,nő,2000,14,2021-05-14_13h28.39.327,ranlexdec,2020.2.5,Win32,60
,,,,,,,,,,,,right,0.71889,0,81,81,18,1,csapattest,KT233,nő,2000,14,2021-05-14_13h28.39.327,ranlexdec,2020.2.5,Win32,60
,,,,,,,,,,,,right,0.803035,0,82,82,165,1,lépték,KT233,nő,2000,14,2021-05-14_13h28.39.327,ranlexdec,2020.2.5,Win32,60
,,,,,,,,,,,,right,0.83682,0,83,83,183,1,színpad,KT233,nő,2000,14,2021-05-14_13h28.39.327,ranlexdec,2020.2.5,Win32,60
,,,,,,,,,,,,right,0.97114,0,84,84,222,1,nyersarany,KT233,nő,2000,14,2021-05-14_13h28.39.327,ranlexdec,2020.2.5,Win32,60
,,,,,,,,,,,,right,1.043485,0,85,85,44,1,ingváll,KT233,nő,2000,14,2021-05-14_13h28.39.327,ranlexdec,2020.2.5,Win32,60
,,,,,,,,,,,,right,0.927355,0,86,86,88,1,pohár,KT233,nő,2000,14,2021-05-14_13h28.39.327,ranlexdec,2020.2.5,Win32,60
,,,,,,,,,,,,right,0.892045,0,87,87,200,1,biliárd,KT233,nő,2000,14,2021-05-14_13h28.39.327,ranlexdec,2020.2.5,Win32,60
,,,,,,,,,,,,right,1.150845,0,88,88,161,1,példakép,KT233,nő,2000,14,2021-05-14_13h28.39.327,ranlexdec,2020.2.5,Win32,60
,,,,,,,,,,,,right,0.75346,0,89,89,104,1,dolog,KT233,nő,2000,14,2021-05-14_13h28.39.327,ranlexdec,2020.2.5,Win32,60
,,,,,,,,,,,,left,1.037925,0,90,90,240,1,áradmány,KT233,nő,2000,14,2021-05-14_13h28.39.327,ranlexdec,2020.2.5,Win32,60
,,,,,,,,,,,,left,1.158005,0,91,91,93,1,kilukát,KT233,nő,2000,14,2021-05-14_13h28.39.327,ranlexdec,2020.2.5,Win32,60
,,,,,,,,,,,,left,0.982285,0,92,92,102,1,pentez,KT233,nő,2000,14,2021-05-14_13h28.39.327,ranlexdec,2020.2.5,Win32,60
,,,,,,,,,,,,right,1.83957,0,93,93,157,1,káder,KT233,nő,2000,14,2021-05-14_13h28.39.327,ranlexdec,2020.2.5,Win32,60
,,,,,,,,,,,,left,1.04693,0,94,94,112,1,méhezter,KT233,nő,2000,14,2021-05-14_13h28.39.327,ranlexdec,2020.2.5,Win32,60
,,,,,,,,,,,,right,0.639965,0,95,95,188,1,sugár,KT233,nő,2000,14,2021-05-14_13h28.39.327,ranlexdec,2020.2.5,Win32,60
,,,,,,,,,,,,right,0.78871,0,96,96,67,1,szegény,KT233,nő,2000,14,2021-05-14_13h28.39.327,ranlexdec,2020.2.5,Win32,60
,,,,,,,,,,,,right,1.51914,0,97,97,179,1,töredék,KT233,nő,2000,14,2021-05-14_13h28.39.327,ranlexdec,2020.2.5,Win32,60
,,,,,,,,,,,,right,0.850855,0,98,98,53,1,puritán,KT233,nő,2000,14,2021-05-14_13h28.39.327,ranlexdec,2020.2.5,Win32,60
,,,,,,,,,,,,left,0.960495,0,99,99,72,1,mihálóz,KT233,nő,2000,14,2021-05-14_13h28.39.327,ranlexdec,2020.2.5,Win32,60
,,,,,,,,,,,,right,0.64381,0,100,100,28,1,gazdag,KT233,nő,2000,14,2021-05-14_13h28.39.327,ranlexdec,2020.2.5,Win32,60
,,,,,,,,,,,,left,0.983045,0,101,101,5,1,retta,KT233,nő,2000,14,2021-05-14_13h28.39.327,ranlexdec,2020.2.5,Win32,60
,,,,,,,,,,,,right,0.766575,0,102,102,41,1,nagybeteg,KT233,nő,2000,14,2021-05-14_13h28.39.327,ranlexdec,2020.2.5,Win32,60
,,,,,,,,,,,,left,0.960915,0,103,103,118,1,libling,KT233,nő,2000,14,2021-05-14_13h28.39.327,ranlexdec,2020.2.5,Win32,60
,,,,,,,,,,,,right,0.854285,0,104,104,227,1,kötődik,KT233,nő,2000,14,2021-05-14_13h28.39.327,ranlexdec,2020.2.5,Win32,60
,,,,,,,,,,,,right,0.878435,0,105,105,248,1,örmény,KT233,nő,2000,14,2021-05-14_13h28.39.327,ranlexdec,2020.2.5,Win32,60
,,,,,,,,,,,,right,0.79264,0,106,106,48,1,reagál,KT233,nő,2000,14,2021-05-14_13h28.39.327,ranlexdec,2020.2.5,Win32,60
,,,,,,,,,,,,right,0.862675,0,107,107,220,1,csontdarab,KT233,nő,2000,14,2021-05-14_13h28.39.327,ranlexdec,2020.2.5,Win32,60
,,,,,,,,,,,,left,1.43608,0,108,108,229,1,lemesség,KT233,nő,2000,14,2021-05-14_13h28.39.327,ranlexdec,2020.2.5,Win32,60
,,,,,,,,,,,,right,0.728785,0,109,109,64,1,hálózsák,KT233,nő,2000,14,2021-05-14_13h28.39.327,ranlexdec,2020.2.5,Win32,60
,,,,,,,,,,,,right,1.003775,0,110,110,147,1,referál,KT233,nő,2000,14,2021-05-14_13h28.39.327,ranlexdec,2020.2.5,Win32,60
,,,,,,,,,,,,right,0.7569,0,111,111,105,1,tököl,KT233,nő,2000,14,2021-05-14_13h28.39.327,ranlexdec,2020.2.5,Win32,60
,,,,,,,,,,,,right,0.911445,0,112,112,235,1,transzplantál,KT233,nő,2000,14,2021-05-14_13h28.39.327,ranlexdec,2020.2.5,Win32,60
,,,,,,,,,,,,right,0.815245,0,113,113,120,1,komál,KT233,nő,2000,14,2021-05-14_13h28.39.327,ranlexdec,2020.2.5,Win32,60
,,,,,,,,,,,,right,1.152575,0,114,114,239,1,donhuán,KT233,nő,2000,14,2021-05-14_13h28.39.327,ranlexdec,2020.2.5,Win32,60
,,,,,,,,,,,,right,0.652145,0,115,115,211,1,tábornagy,KT233,nő,2000,14,2021-05-14_13h28.39.327,ranlexdec,2020.2.5,Win32,60
,,,,,,,,,,,,left,0.84212,0,116,116,3,1,tömzsa,KT233,nő,2000,14,2021-05-14_13h28.39.327,ranlexdec,2020.2.5,Win32,60
,,,,,,,,,,,,left,0.88129,0,117,117,192,1,norvend,KT233,nő,2000,14,2021-05-14_13h28.39.327,ranlexdec,2020.2.5,Win32,60
,,,,,,,,,,,,right,0.79014,0,118,118,92,1,lágyék,KT233,nő,2000,14,2021-05-14_13h28.39.327,ranlexdec,2020.2.5,Win32,60
,,,,,,,,,,,,right,0.81956,0,119,119,237,1,forgórész,KT233,nő,2000,14,2021-05-14_13h28.39.327,ranlexdec,2020.2.5,Win32,60
,,,,,,,,,,,,left,0.978945,0,120,120,38,1,zomogyi,KT233,nő,2000,14,2021-05-14_13h28.39.327,ranlexdec,2020.2.5,Win32,60
,,,,,,,,,,,,right,0.802105,0,121,121,175,1,szilikát,KT233,nő,2000,14,2021-05-14_13h28.39.327,ranlexdec,2020.2.5,Win32,60
,,,,,,,,,,,,right,0.75199,0,122,122,172,1,kettősfém,KT233,nő,2000,14,2021-05-14_13h28.39.327,ranlexdec,2020.2.5,Win32,60
,,,,,,,,,,,,left,1.197335,0,123,123,203,1,abeti,KT233,nő,2000,14,2021-05-14_13h28.39.327,ranlexdec,2020.2.5,Win32,60
,,,,,,,,,,,,right,0.78495,0,124,124,86,1,jármű,KT233,nő,2000,14,2021-05-14_13h28.39.327,ranlexdec,2020.2.5,Win32,60
,,,,,,,,,,,,left,0.87804,0,125,125,29,1,novagár,KT233,nő,2000,14,2021-05-14_13h28.39.327,ranlexdec,2020.2.5,Win32,60
,,,,,,,,,,,,right,0.78803,0,126,126,215,1,neoprén,KT233,nő,2000,14,2021-05-14_13h28.39.327,ranlexdec,2020.2.5,Win32,60
,,,,,,,,,,,,right,0.772415,0,127,127,201,1,szempont,KT233,nő,2000,14,2021-05-14_13h28.39.327,ranlexdec,2020.2.5,Win32,60
,,,,,,,,,,,,right,0.685215,0,128,128,187,1,testnedv,KT233,nő,2000,14,2021-05-14_13h28.39.327,ranlexdec,2020.2.5,Win32,60
,,,,,,,,,,,,right,0.695975,0,129,129,0,1,irány,KT233,nő,2000,14,2021-05-14_13h28.39.327,ranlexdec,2020.2.5,Win32,60
,,,,,,,,,,,,right,0.78534,0,130,130,146,1,kondenzcsík,KT233,nő,2000,14,2021-05-14_13h28.39.327,ranlexdec,2020.2.5,Win32,60
,,,,,,,,,,,,right,0.784605,0,131,131,8,1,kulcscsont,KT233,nő,2000,14,2021-05-14_13h28.39.327,ranlexdec,2020.2.5,Win32,60
,,,,,,,,,,,,right,0.743295,0,132,132,140,1,diktátor,KT233,nő,2000,14,2021-05-14_13h28.39.327,ranlexdec,2020.2.5,Win32,60
,,,,,,,,,,,,right,0.77829,0,133,133,128,1,csüggedez,KT233,nő,2000,14,2021-05-14_13h28.39.327,ranlexdec,2020.2.5,Win32,60
,,,,,,,,,,,,left,1.02655,0,134,134,198,1,lublika,KT233,nő,2000,14,2021-05-14_13h28.39.327,ranlexdec,2020.2.5,Win32,60
,,,,,,,,,,,,left,0.850835,0,135,135,97,1,vésségi,KT233,nő,2000,14,2021-05-14_13h28.39.327,ranlexdec,2020.2.5,Win32,60
,,,,,,,,,,,,left,1.05482,0,136,136,4,1,viszonvád,KT233,nő,2000,14,2021-05-14_13h28.39.327,ranlexdec,2020.2.5,Win32,60
,,,,,,,,,,,,left,1.101305,0,137,137,153,1,kontrapunkt,KT233,nő,2000,14,2021-05-14_13h28.39.327,ranlexdec,2020.2.5,Win32,60
,,,,,,,,,,,,right,0.97714,0,138,138,22,1,arzénsav,KT233,nő,2000,14,2021-05-14_13h28.39.327,ranlexdec,2020.2.5,Win32,60
,,,,,,,,,,,,right,0.99404,0,139,139,95,1,skubizik,KT233,nő,2000,14,2021-05-14_13h28.39.327,ranlexdec,2020.2.5,Win32,60
,,,,,,,,,,,,left,1.18322,0,140,140,47,1,döföl,KT233,nő,2000,14,2021-05-14_13h28.39.327,ranlexdec,2020.2.5,Win32,60
,,,,,,,,,,,,left,1.052055,0,141,141,216,1,svábtök,KT233,nő,2000,14,2021-05-14_13h28.39.327,ranlexdec,2020.2.5,Win32,60
,,,,,,,,,,,,right,1.03607,0,142,142,230,1,délceg,KT233,nő,2000,14,2021-05-14_13h28.39.327,ranlexdec,2020.2.5,Win32,60
,,,,,,,,,,,,right,0.855285,0,143,143,31,1,iszlám,KT233,nő,2000,14,2021-05-14_13h28.39.327,ranlexdec,2020.2.5,Win32,60
,,,,,,,,,,,,left,0.86978,0,144,144,137,1,aragas,KT233,nő,2000,14,2021-05-14_13h28.39.327,ranlexdec,2020.2.5,Win32,60
,,,,,,,,,,,,left,0.964025,0,145,145,94,1,rotor,KT233,nő,2000,14,2021-05-14_13h28.39.327,ranlexdec,2020.2.5,Win32,60
,,,,,,,,,,,,left,0.907775,0,146,146,117,1,ószeven,KT233,nő,2000,14,2021-05-14_13h28.39.327,ranlexdec,2020.2.5,Win32,60
,,,,,,,,,,,,right,0.86259,0,147,147,30,1,dádá,KT233,nő,2000,14,2021-05-14_13h28.39.327,ranlexdec,2020.2.5,Win32,60
,,,,,,,,,,,,right,0.856375,0,148,148,35,1,türemlik,KT233,nő,2000,14,2021-05-14_13h28.39.327,ranlexdec,2020.2.5,Win32,60
,,,,,,,,,,,,right,1.486035,0,149,149,185,1,gyülemlik,KT233,nő,2000,14,2021-05-14_13h28.39.327,ranlexdec,2020.2.5,Win32,60
,,,,,,,,,,,,right,0.714695,0,150,150,43,1,közhely,KT233,nő,2000,14,2021-05-14_13h28.39.327,ranlexdec,2020.2.5,Win32,60
,,,,,,,,,,,,right,0.885295,0,151,151,74,1,püffeszt,KT233,nő,2000,14,2021-05-14_13h28.39.327,ranlexdec,2020.2.5,Win32,60
,,,,,,,,,,,,left,0.95048,0,152,152,207,1,diffamál,KT233,nő,2000,14,2021-05-14_13h28.39.327,ranlexdec,2020.2.5,Win32,60
,,,,,,,,,,,,right,1.378265,0,153,153,33,1,kalcium,KT233,nő,2000,14,2021-05-14_13h28.39.327,ranlexdec,2020.2.5,Win32,60
,,,,,,,,,,,,right,0.902165,0,154,154,236,1,csatázik,KT233,nő,2000,14,2021-05-14_13h28.39.327,ranlexdec,2020.2.5,Win32,60
,,,,,,,,,,,,right,0.790245,0,155,155,245,1,ellenfél,KT233,nő,2000,14,2021-05-14_13h28.39.327,ranlexdec,2020.2.5,Win32,60
,,,,,,,,,,,,right,1.49103,0,156,156,223,1,árstop,KT233,nő,2000,14,2021-05-14_13h28.39.327,ranlexdec,2020.2.5,Win32,60
,,,,,,,,,,,,right,1.17005,0,157,157,62,1,bizmut,KT233,nő,2000,14,2021-05-14_13h28.39.327,ranlexdec,2020.2.5,Win32,60
,,,,,,,,,,,,left,0.995035,0,158,158,224,1,truccol,KT233,nő,2000,14,2021-05-14_13h28.39.327,ranlexdec,2020.2.5,Win32,60
,,,,,,,,,,,,right,0.728305,0,159,159,116,1,árus,KT233,nő,2000,14,2021-05-14_13h28.39.327,ranlexdec,2020.2.5,Win32,60
,,,,,,,,,,,,right,1.0287,0,160,160,180,1,adszorbens,KT233,nő,2000,14,2021-05-14_13h28.39.327,ranlexdec,2020.2.5,Win32,60
,,,,,,,,,,,,right,0.867635,0,161,161,61,1,régész,KT233,nő,2000,14,2021-05-14_13h28.39.327,ranlexdec,2020.2.5,Win32,60
,,,,,,,,,,,,right,0.821455,0,162,162,241,1,kárpit,KT233,nő,2000,14,2021-05-14_13h28.39.327,ranlexdec,2020.2.5,Win32,60
,,,,,,,,,,,,left,1.20291,0,163,163,190,1,rámáz,KT233,nő,2000,14,2021-05-14_13h28.39.327,ranlexdec,2020.2.5,Win32,60
,,,,,,,,,,,,right,0.81126,0,164,164,32,1,genom,KT233,nő,2000,14,2021-05-14_13h28.39.327,ranlexdec,2020.2.5,Win32,60
,,,,,,,,,,,,left,1.05525,0,165,165,91,1,tajtásos,KT233,nő,2000,14,2021-05-14_13h28.39.327,ranlexdec,2020.2.5,Win32,60
,,,,,,,,,,,,right,0.870185,0,166,166,19,1,tangózik,KT233,nő,2000,14,2021-05-14_13h28.39.327,ranlexdec,2020.2.5,Win32,60
,,,,,,,,,,,,right,0.849615,0,167,167,176,1,bélyeg,KT233,nő,2000,14,2021-05-14_13h28.39.327,ranlexdec,2020.2.5,Win32,60
,,,,,,,,,,,,right,0.869305,0,168,168,55,1,látszik,KT233,nő,2000,14,2021-05-14_13h28.39.327,ranlexdec,2020.2.5,Win32,60
,,,,,,,,,,,,right,0.73873,0,169,169,244,1,kislány,KT233,nő,2000,14,2021-05-14_13h28.39.327,ranlexdec,2020.2.5,Win32,60
,,,,,,,,,,,,left,0.85231,0,170,170,24,1,kosi,KT233,nő,2000,14,2021-05-14_13h28.39.327,ranlexdec,2020.2.5,Win32,60
,,,,,,,,,,,,left,1.02773,0,171,171,15,1,pauzál,KT233,nő,2000,14,2021-05-14_13h28.39.327,ranlexdec,2020.2.5,Win32,60
,,,,,,,,,,,,right,1.113835,0,172,172,130,1,derít,KT233,nő,2000,14,2021-05-14_13h28.39.327,ranlexdec,2020.2.5,Win32,60
,,,,,,,,,,,,right,0.747395,0,173,173,10,1,nárcisz,KT233,nő,2000,14,2021-05-14_13h28.39.327,ranlexdec,2020.2.5,Win32,60
,,,,,,,,,,,,left,0.99715,0,174,174,76,1,jegedény,KT233,nő,2000,14,2021-05-14_13h28.39.327,ranlexdec,2020.2.5,Win32,60
,,,,,,,,,,,,left,0.927045,0,175,175,83,1,vonzum,KT233,nő,2000,14,2021-05-14_13h28.39.327,ranlexdec,2020.2.5,Win32,60
,,,,,,,,,,,,left,0.745715,0,176,176,36,1,tröshet,KT233,nő,2000,14,2021-05-14_13h28.39.327,ranlexdec,2020.2.5,Win32,60
,,,,,,,,,,,,right,0.900275,0,177,177,226,1,szalicil,KT233,nő,2000,14,2021-05-14_13h28.39.327,ranlexdec,2020.2.5,Win32,60
,,,,,,,,,,,,left,1.678185,0,178,178,69,1,gerencsér,KT233,nő,2000,14,2021-05-14_13h28.39.327,ranlexdec,2020.2.5,Win32,60
,,,,,,,,,,,,left,0.894635,0,179,179,75,1,karnogó,KT233,nő,2000,14,2021-05-14_13h28.39.327,ranlexdec,2020.2.5,Win32,60
,,,,,,,,,,,,left,0.85046,0,180,180,142,1,storítő,KT233,nő,2000,14,2021-05-14_13h28.39.327,ranlexdec,2020.2.5,Win32,60
,,,,,,,,,,,,right,1.153695,0,181,181,249,1,kencéz,KT233,nő,2000,14,2021-05-14_13h28.39.327,ranlexdec,2020.2.5,Win32,60
,,,,,,,,,,,,left,0.8587,0,182,182,205,1,mimézis,KT233,nő,2000,14,2021-05-14_13h28.39.327,ranlexdec,2020.2.5,Win32,60
,,,,,,,,,,,,right,0.80251,0,183,183,6,1,csüggeszt,KT233,nő,2000,14,2021-05-14_13h28.39.327,ranlexdec,2020.2.5,Win32,60
,,,,,,,,,,,,right,0.787985,0,184,184,122,1,égitest,KT233,nő,2000,14,2021-05-14_13h28.39.327,ranlexdec,2020.2.5,Win32,60
,,,,,,,,,,,,left,0.87756,0,185,185,2,1,gyásos,KT233,nő,2000,14,2021-05-14_13h28.39.327,ranlexdec,2020.2.5,Win32,60
,,,,,,,,,,,,right,1.17846,0,186,186,145,1,kurtít,KT233,nő,2000,14,2021-05-14_13h28.39.327,ranlexdec,2020.2.5,Win32,60
,,,,,,,,,,,,right,0.79172,0,187,187,160,1,százalék,KT233,nő,2000,14,2021-05-14_13h28.39.327,ranlexdec,2020.2.5,Win32,60
,,,,,,,,,,,,right,0.93202,0,188,188,209,1,hidegház,KT233,nő,2000,14,2021-05-14_13h28.39.327,ranlexdec,2020.2.5,Win32,60
,,,,,,,,,,,,right,0.87172,0,189,189,12,1,gyapot,KT233,nő,2000,14,2021-05-14_13h28.39.327,ranlexdec,2020.2.5,Win32,60
,,,,,,,,,,,,left,0.85094,0,190,190,66,1,parkkói,KT233,nő,2000,14,2021-05-14_13h28.39.327,ranlexdec,2020.2.5,Win32,60
,,,,,,,,,,,,left,0.9713,0,191,191,212,1,farkasbab,KT233,nő,2000,14,2021-05-14_13h28.39.327,ranlexdec,2020.2.5,Win32,60
,,,,,,,,,,,,right,0.72552,0,192,192,135,1,ion,KT233,nő,2000,14,2021-05-14_13h28.39.327,ranlexdec,2020.2.5,Win32,60
,,,,,,,,,,,,right,0.745545,0,193,193,246,1,beton,KT233,nő,2000,14,2021-05-14_13h28.39.327,ranlexdec,2020.2.5,Win32,60
,,,,,,,,,,,,right,1.226625,0,194,194,206,1,horizont,KT233,nő,2000,14,2021-05-14_13h28.39.327,ranlexdec,2020.2.5,Win32,60
,,,,,,,,,,,,left,1.046355,0,195,195,131,1,vetézmés,KT233,nő,2000,14,2021-05-14_13h28.39.327,ranlexdec,2020.2.5,Win32,60
,,,,,,,,,,,,right,0.70461,0,196,196,196,1,dolgozik,KT233,nő,2000,14,2021-05-14_13h28.39.327,ranlexdec,2020.2.5,Win32,60
,,,,,,,,,,,,right,0.960205,0,197,197,136,1,rücsök,KT233,nő,2000,14,2021-05-14_13h28.39.327,ranlexdec,2020.2.5,Win32,60
,,,,,,,,,,,,left,1.094875,0,198,198,81,1,takorák,KT233,nő,2000,14,2021-05-14_13h28.39.327,ranlexdec,2020.2.5,Win32,60
,,,,,,,,,,,,right,0.718575,0,199,199,171,1,újgazdag,KT233,nő,2000,14,2021-05-14_13h28.39.327,ranlexdec,2020.2.5,Win32,60
,,,,,,,,,,,,left,1.16451,0,200,200,155,1,megpadék,KT233,nő,2000,14,2021-05-14_13h28.39.327,ranlexdec,2020.2.5,Win32,60
,,,,,,,,,,,,left,0.83863,0,201,201,108,1,konyrúd,KT233,nő,2000,14,2021-05-14_13h28.39.327,ranlexdec,2020.2.5,Win32,60
,,,,,,,,,,,,left,0.863685,0,202,202,167,1,vabank,KT233,nő,2000,14,2021-05-14_13h28.39.327,ranlexdec,2020.2.5,Win32,60
,,,,,,,,,,,,left,0.734275,0,203,203,50,1,csenyei,KT233,nő,2000,14,2021-05-14_13h28.39.327,ranlexdec,2020.2.5,Win32,60
,,,,,,,,,,,,right,0.76343,0,204,204,11,1,viszkóz,KT233,nő,2000,14,2021-05-14_13h28.39.327,ranlexdec,2020.2.5,Win32,60
,,,,,,,,,,,,right,0.852335,0,205,205,113,1,piktogram,KT233,nő,2000,14,2021-05-14_13h28.39.327,ranlexdec,2020.2.5,Win32,60
,,,,,,,,,,,,left,1.40907,0,206,206,96,1,alfél,KT233,nő,2000,14,2021-05-14_13h28.39.327,ranlexdec,2020.2.5,Win32,60
,,,,,,,,,,,,right,0.70456,0,207,207,110,1,időszak,KT233,nő,2000,14,2021-05-14_13h28.39.327,ranlexdec,2020.2.5,Win32,60
,,,,,,,,,,,,right,0.977625,0,208,208,124,1,alkalom,KT233,nő,2000,14,2021-05-14_13h28.39.327,ranlexdec,2020.2.5,Win32,60
,,,,,,,,,,,,right,1.74474,0,209,209,126,1,rejtőzik,KT233,nő,2000,14,2021-05-14_13h28.39.327,ranlexdec,2020.2.5,Win32,60
,,,,,,,,,,,,right,0.743,0,210,210,25,1,reform,KT233,nő,2000,14,2021-05-14_13h28.39.327,ranlexdec,2020.2.5,Win32,60
,,,,,,,,,,,,right,0.642415,0,211,211,184,1,profit,KT233,nő,2000,14,2021-05-14_13h28.39.327,ranlexdec,2020.2.5,Win32,60
,,,,,,,,,,,,left,0.71161,0,212,212,166,1,retálhit,KT233,nő,2000,14,2021-05-14_13h28.39.327,ranlexdec,2020.2.5,Win32,60
,,,,,,,,,,,,right,0.667385,0,213,213,132,1,hatalom,KT233,nő,2000,14,2021-05-14_13h28.39.327,ranlexdec,2020.2.5,Win32,60
,,,,,,,,,,,,right,0.626795,0,214,214,73,1,olaj,KT233,nő,2000,14,2021-05-14_13h28.39.327,ranlexdec,2020.2.5,Win32,60
,,,,,,,,,,,,right,0.963,0,215,215,111,1,koenzim,KT233,nő,2000,14,2021-05-14_13h28.39.327,ranlexdec,2020.2.5,Win32,60
,,,,,,,,,,,,left,0.87881,0,216,216,164,1,kurzivál,KT233,nő,2000,14,2021-05-14_13h28.39.327,ranlexdec,2020.2.5,Win32,60
,,,,,,,,,,,,left,1.02757,0,217,217,1,1,csapdáz,KT233,nő,2000,14,2021-05-14_13h28.39.327,ranlexdec,2020.2.5,Win32,60
,,,,,,,,,,,,right,0.82718,0,218,218,14,1,selypít,KT233,nő,2000,14,2021-05-14_13h28.39.327,ranlexdec,2020.2.5,Win32,60
,,,,,,,,,,,,left,0.75203,0,219,219,225,1,bajadér,KT233,nő,2000,14,2021-05-14_13h28.39.327,ranlexdec,2020.2.5,Win32,60
,,,,,,,,,,,,right,0.83645,0,220,220,123,1,luftballon,KT233,nő,2000,14,2021-05-14_13h28.39.327,ranlexdec,2020.2.5,Win32,60
,,,,,,,,,,,,right,0.76745,0,221,221,199,1,ború,KT233,nő,2000,14,2021-05-14_13h28.39.327,ranlexdec,2020.2.5,Win32,60
,,,,,,,,,,,,right,0.732135,0,222,222,7,1,űrlap,KT233,nő,2000,14,2021-05-14_13h28.39.327,ranlexdec,2020.2.5,Win32,60
,,,,,,,,,,,,left,0.82859,0,223,223,125,1,úszamos,KT233,nő,2000,14,2021-05-14_13h28.39.327,ranlexdec,2020.2.5,Win32,60
,,,,,,,,,,,,left,0.81618,0,224,224,174,1,cianid,KT233,nő,2000,14,2021-05-14_13h28.39.327,ranlexdec,2020.2.5,Win32,60
,,,,,,,,,,,,right,0.777465,0,225,225,228,1,tarol,KT233,nő,2000,14,2021-05-14_13h28.39.327,ranlexdec,2020.2.5,Win32,60
,,,,,,,,,,,,left,1.20348,0,226,226,65,1,infimum,KT233,nő,2000,14,2021-05-14_13h28.39.327,ranlexdec,2020.2.5,Win32,60
,,,,,,,,,,,,right,0.817835,0,227,227,177,1,pereg,KT233,nő,2000,14,2021-05-14_13h28.39.327,ranlexdec,2020.2.5,Win32,60
,,,,,,,,,,,,left,1.00269,0,228,228,134,1,móringol,KT233,nő,2000,14,2021-05-14_13h28.39.327,ranlexdec,2020.2.5,Win32,60
,,,,,,,,,,,,left,1.16389,0,229,229,150,1,orront,KT233,nő,2000,14,2021-05-14_13h28.39.327,ranlexdec,2020.2.5,Win32,60
,,,,,,,,,,,,left,0.96839,0,230,230,106,1,lalláz,KT233,nő,2000,14,2021-05-14_13h28.39.327,ranlexdec,2020.2.5,Win32,60
,,,,,,,,,,,,left,0.936865,0,231,231,141,1,hider,KT233,nő,2000,14,2021-05-14_13h28.39.327,ranlexdec,2020.2.5,Win32,60
,,,,,,,,,,,,left,1.01369,0,232,232,162,1,nimbus,KT233,nő,2000,14,2021-05-14_13h28.39.327,ranlexdec,2020.2.5,Win32,60
,,,,,,,,,,,,left,0.83894,0,233,233,46,1,kurzív,KT233,nő,2000,14,2021-05-14_13h28.39.327,ranlexdec,2020.2.5,Win32,60
,,,,,,,,,,,,right,0.868295,0,234,234,238,1,bolgár,KT233,nő,2000,14,2021-05-14_13h28.39.327,ranlexdec,2020.2.5,Win32,60
,,,,,,,,,,,,right,0.76715,0,235,235,213,1,eszköz,KT233,nő,2000,14,2021-05-14_13h28.39.327,ranlexdec,2020.2.5,Win32,60
,,,,,,,,,,,,left,0.904935,0,236,236,186,1,piláf,KT233,nő,2000,14,2021-05-14_13h28.39.327,ranlexdec,2020.2.5,Win32,60
,,,,,,,,,,,,left,0.793665,0,237,237,26,1,aurult,KT233,nő,2000,14,2021-05-14_13h28.39.327,ranlexdec,2020.2.5,Win32,60
,,,,,,,,,,,,right,0.73353,0,238,238,78,1,törékeny,KT233,nő,2000,14,2021-05-14_13h28.39.327,ranlexdec,2020.2.5,Win32,60
,,,,,,,,,,,,right,0.91409,0,239,239,85,1,glükóz,KT233,nő,2000,14,2021-05-14_13h28.39.327,ranlexdec,2020.2.5,Win32,60
,,,,,,,,,,,,right,0.769,0,240,240,169,1,komoly,KT233,nő,2000,14,2021-05-14_13h28.39.327,ranlexdec,2020.2.5,Win32,60
,,,,,,,,,,,,right,0.815085,0,241,241,170,1,változik,KT233,nő,2000,14,2021-05-14_13h28.39.327,ranlexdec,2020.2.5,Win32,60
,,,,,,,,,,,,right,1.229545,0,242,242,21,1,heveny,KT233,nő,2000,14,2021-05-14_13h28.39.327,ranlexdec,2020.2.5,Win32,60
,,,,,,,,,,,,left,0.83465,0,243,243,17,1,magmatit,KT233,nő,2000,14,2021-05-14_13h28.39.327,ranlexdec,2020.2.5,Win32,60
,,,,,,,,,,,,right,0.726965,0,244,244,154,1,keresztény,KT233,nő,2000,14,2021-05-14_13h28.39.327,ranlexdec,2020.2.5,Win32,60
,,,,,,,,,,,,left,0.98537,0,245,245,219,1,szimboló,KT233,nő,2000,14,2021-05-14_13h28.39.327,ranlexdec,2020.2.5,Win32,60
,,,,,,,,,,,,left,1.667205,0,246,246,109,1,vényegő,KT233,nő,2000,14,2021-05-14_13h28.39.327,ranlexdec,2020.2.5,Win32,60
,,,,,,,,,,,,right,0.80648,0,247,247,151,1,komplex,KT233,nő,2000,14,2021-05-14_13h28.39.327,ranlexdec,2020.2.5,Win32,60
,,,,,,,,,,,,left,0.85678,0,248,248,23,1,szelégül,KT233,nő,2000,14,2021-05-14_13h28.39.327,ranlexdec,2020.2.5,Win32,60
,,,,,,,,,,,,left,1.09165,0,249,249,60,1,bárányfark,KT233,nő,2000,14,2021-05-14_13h28.39.327,ranlexdec,2020.2.5,Win32,60
