ready2_2.keys,ready2_2.rt,ready2.keys,ready2.rt,key_resp.keys,key_resp.rt,key_resp_3.keys,key_resp_3.rt,key_resp_2.keys,key_resp_2.rt,ready3.keys,ready3.rt,resp.keys,resp.rt,withinBlock.thisRepN,withinBlock.thisTrialN,withinBlock.thisN,withinBlock.thisIndex,withinBlock.ran,word,Azonosító,Az Ön neme,Születési éve,Hány évet töltött az iskolapadban (egyetemet is beleértve),date,expName,psychopyVersion,OS,frameRate
space,43.789235,down,3.15881,right,2.85125,left,2.45743,left,2.528355,down,14.865015,right,2.09269,0,0,0,41,1,nagybeteg,KT242,nő,1973,19,2021-05-14_18h07.42.163,ranlexdec,2020.2.5,Win32,60
,,,,,,,,,,,,right,0.938685,0,1,1,53,1,puritán,KT242,nő,1973,19,2021-05-14_18h07.42.163,ranlexdec,2020.2.5,Win32,60
,,,,,,,,,,,,left,1.45349,0,2,2,93,1,kilukát,KT242,nő,1973,19,2021-05-14_18h07.42.163,ranlexdec,2020.2.5,Win32,60
,,,,,,,,,,,,right,0.71939,0,3,3,183,1,színpad,KT242,nő,1973,19,2021-05-14_18h07.42.163,ranlexdec,2020.2.5,Win32,60
,,,,,,,,,,,,right,1.68138,0,4,4,128,1,csüggedez,KT242,nő,1973,19,2021-05-14_18h07.42.163,ranlexdec,2020.2.5,Win32,60
,,,,,,,,,,,,right,0.73116,0,5,5,194,1,végbél,KT242,nő,1973,19,2021-05-14_18h07.42.163,ranlexdec,2020.2.5,Win32,60
,,,,,,,,,,,,right,0.765305,0,6,6,189,1,konverzál,KT242,nő,1973,19,2021-05-14_18h07.42.163,ranlexdec,2020.2.5,Win32,60
,,,,,,,,,,,,right,1.321815,0,7,7,162,1,nimbus,KT242,nő,1973,19,2021-05-14_18h07.42.163,ranlexdec,2020.2.5,Win32,60
,,,,,,,,,,,,right,1.222905,0,8,8,123,1,luftballon,KT242,nő,1973,19,2021-05-14_18h07.42.163,ranlexdec,2020.2.5,Win32,60
,,,,,,,,,,,,right,1.610635,0,9,9,37,1,lukaszt,KT242,nő,1973,19,2021-05-14_18h07.42.163,ranlexdec,2020.2.5,Win32,60
,,,,,,,,,,,,right,0.559185,0,10,10,138,1,gyűjtemény,KT242,nő,1973,19,2021-05-14_18h07.42.163,ranlexdec,2020.2.5,Win32,60
,,,,,,,,,,,,left,2.10576,0,11,11,65,1,infimum,KT242,nő,1973,19,2021-05-14_18h07.42.163,ranlexdec,2020.2.5,Win32,60
,,,,,,,,,,,,left,1.630785,0,12,12,139,1,vároló,KT242,nő,1973,19,2021-05-14_18h07.42.163,ranlexdec,2020.2.5,Win32,60
,,,,,,,,,,,,left,1.593705,0,13,13,133,1,hübrisz,KT242,nő,1973,19,2021-05-14_18h07.42.163,ranlexdec,2020.2.5,Win32,60
,,,,,,,,,,,,right,1.694365,0,14,14,118,1,libling,KT242,nő,1973,19,2021-05-14_18h07.42.163,ranlexdec,2020.2.5,Win32,60
,,,,,,,,,,,,right,0.558325,0,15,15,86,1,jármű,KT242,nő,1973,19,2021-05-14_18h07.42.163,ranlexdec,2020.2.5,Win32,60
,,,,,,,,,,,,right,0.623915,0,16,16,120,1,komál,KT242,nő,1973,19,2021-05-14_18h07.42.163,ranlexdec,2020.2.5,Win32,60
,,,,,,,,,,,,right,0.606985,0,17,17,244,1,kislány,KT242,nő,1973,19,2021-05-14_18h07.42.163,ranlexdec,2020.2.5,Win32,60
,,,,,,,,,,,,left,1.126025,0,18,18,50,1,csenyei,KT242,nő,1973,19,2021-05-14_18h07.42.163,ranlexdec,2020.2.5,Win32,60
,,,,,,,,,,,,right,0.55913,0,19,19,176,1,bélyeg,KT242,nő,1973,19,2021-05-14_18h07.42.163,ranlexdec,2020.2.5,Win32,60
,,,,,,,,,,,,right,1.56855,0,20,20,215,1,neoprén,KT242,nő,1973,19,2021-05-14_18h07.42.163,ranlexdec,2020.2.5,Win32,60
,,,,,,,,,,,,right,2.423985,0,21,21,153,1,kontrapunkt,KT242,nő,1973,19,2021-05-14_18h07.42.163,ranlexdec,2020.2.5,Win32,60
,,,,,,,,,,,,right,0.511165,0,22,22,99,1,sárgaréz,KT242,nő,1973,19,2021-05-14_18h07.42.163,ranlexdec,2020.2.5,Win32,60
,,,,,,,,,,,,right,0.594245,0,23,23,87,1,forrpont,KT242,nő,1973,19,2021-05-14_18h07.42.163,ranlexdec,2020.2.5,Win32,60
,,,,,,,,,,,,right,1.747035,0,24,24,96,1,alfél,KT242,nő,1973,19,2021-05-14_18h07.42.163,ranlexdec,2020.2.5,Win32,60
,,,,,,,,,,,,right,0.944635,0,25,25,22,1,arzénsav,KT242,nő,1973,19,2021-05-14_18h07.42.163,ranlexdec,2020.2.5,Win32,60
,,,,,,,,,,,,left,1.242065,0,26,26,186,1,piláf,KT242,nő,1973,19,2021-05-14_18h07.42.163,ranlexdec,2020.2.5,Win32,60
,,,,,,,,,,,,left,1.4217,0,27,27,167,1,vabank,KT242,nő,1973,19,2021-05-14_18h07.42.163,ranlexdec,2020.2.5,Win32,60
,,,,,,,,,,,,right,1.36139,0,28,28,217,1,ifjít,KT242,nő,1973,19,2021-05-14_18h07.42.163,ranlexdec,2020.2.5,Win32,60
,,,,,,,,,,,,right,0.656025,0,29,29,11,1,viszkóz,KT242,nő,1973,19,2021-05-14_18h07.42.163,ranlexdec,2020.2.5,Win32,60
,,,,,,,,,,,,right,1.086675,0,30,30,30,1,dádá,KT242,nő,1973,19,2021-05-14_18h07.42.163,ranlexdec,2020.2.5,Win32,60
,,,,,,,,,,,,right,0.511555,0,31,31,236,1,csatázik,KT242,nő,1973,19,2021-05-14_18h07.42.163,ranlexdec,2020.2.5,Win32,60
,,,,,,,,,,,,right,0.588035,0,32,32,140,1,diktátor,KT242,nő,1973,19,2021-05-14_18h07.42.163,ranlexdec,2020.2.5,Win32,60
,,,,,,,,,,,,right,0.51629,0,33,33,13,1,törköly,KT242,nő,1973,19,2021-05-14_18h07.42.163,ranlexdec,2020.2.5,Win32,60
,,,,,,,,,,,,right,0.43129,0,34,34,216,1,svábtök,KT242,nő,1973,19,2021-05-14_18h07.42.163,ranlexdec,2020.2.5,Win32,60
,,,,,,,,,,,,right,1.205715,0,35,35,35,1,türemlik,KT242,nő,1973,19,2021-05-14_18h07.42.163,ranlexdec,2020.2.5,Win32,60
,,,,,,,,,,,,right,0.61131,0,36,36,34,1,csengettyű,KT242,nő,1973,19,2021-05-14_18h07.42.163,ranlexdec,2020.2.5,Win32,60
,,,,,,,,,,,,right,1.403855,0,37,37,101,1,nukleon,KT242,nő,1973,19,2021-05-14_18h07.42.163,ranlexdec,2020.2.5,Win32,60
,,,,,,,,,,,,right,0.478885,0,38,38,73,1,olaj,KT242,nő,1973,19,2021-05-14_18h07.42.163,ranlexdec,2020.2.5,Win32,60
,,,,,,,,,,,,right,0.501135,0,39,39,196,1,dolgozik,KT242,nő,1973,19,2021-05-14_18h07.42.163,ranlexdec,2020.2.5,Win32,60
,,,,,,,,,,,,left,1.74419,0,40,40,66,1,parkkói,KT242,nő,1973,19,2021-05-14_18h07.42.163,ranlexdec,2020.2.5,Win32,60
,,,,,,,,,,,,left,3.446375,0,41,41,224,1,truccol,KT242,nő,1973,19,2021-05-14_18h07.42.163,ranlexdec,2020.2.5,Win32,60
,,,,,,,,,,,,left,1.69868,0,42,42,38,1,zomogyi,KT242,nő,1973,19,2021-05-14_18h07.42.163,ranlexdec,2020.2.5,Win32,60
,,,,,,,,,,,,left,0.930195,0,43,43,26,1,aurult,KT242,nő,1973,19,2021-05-14_18h07.42.163,ranlexdec,2020.2.5,Win32,60
,,,,,,,,,,,,right,0.787115,0,44,44,199,1,ború,KT242,nő,1973,19,2021-05-14_18h07.42.163,ranlexdec,2020.2.5,Win32,60
,,,,,,,,,,,,right,0.4746,0,45,45,177,1,pereg,KT242,nő,1973,19,2021-05-14_18h07.42.163,ranlexdec,2020.2.5,Win32,60
,,,,,,,,,,,,right,0.48762,0,46,46,213,1,eszköz,KT242,nő,1973,19,2021-05-14_18h07.42.163,ranlexdec,2020.2.5,Win32,60
,,,,,,,,,,,,right,1.13224,0,47,47,225,1,bajadér,KT242,nő,1973,19,2021-05-14_18h07.42.163,ranlexdec,2020.2.5,Win32,60
,,,,,,,,,,,,right,0.550205,0,48,48,171,1,újgazdag,KT242,nő,1973,19,2021-05-14_18h07.42.163,ranlexdec,2020.2.5,Win32,60
,,,,,,,,,,,,right,0.702305,0,49,49,14,1,selypít,KT242,nő,1973,19,2021-05-14_18h07.42.163,ranlexdec,2020.2.5,Win32,60
,,,,,,,,,,,,right,0.484185,0,50,50,3,1,tömzsa,KT242,nő,1973,19,2021-05-14_18h07.42.163,ranlexdec,2020.2.5,Win32,60
,,,,,,,,,,,,right,0.821945,0,51,51,33,1,kalcium,KT242,nő,1973,19,2021-05-14_18h07.42.163,ranlexdec,2020.2.5,Win32,60
,,,,,,,,,,,,right,0.587885,0,52,52,31,1,iszlám,KT242,nő,1973,19,2021-05-14_18h07.42.163,ranlexdec,2020.2.5,Win32,60
,,,,,,,,,,,,right,0.47669,0,53,53,80,1,darab,KT242,nő,1973,19,2021-05-14_18h07.42.163,ranlexdec,2020.2.5,Win32,60
,,,,,,,,,,,,right,0.40951,0,54,54,105,1,tököl,KT242,nő,1973,19,2021-05-14_18h07.42.163,ranlexdec,2020.2.5,Win32,60
,,,,,,,,,,,,left,2.41764,0,55,55,180,1,adszorbens,KT242,nő,1973,19,2021-05-14_18h07.42.163,ranlexdec,2020.2.5,Win32,60
,,,,,,,,,,,,left,1.546575,0,56,56,81,1,takorák,KT242,nő,1973,19,2021-05-14_18h07.42.163,ranlexdec,2020.2.5,Win32,60
,,,,,,,,,,,,left,1.16126,0,57,57,75,1,karnogó,KT242,nő,1973,19,2021-05-14_18h07.42.163,ranlexdec,2020.2.5,Win32,60
,,,,,,,,,,,,right,0.65651,0,58,58,122,1,égitest,KT242,nő,1973,19,2021-05-14_18h07.42.163,ranlexdec,2020.2.5,Win32,60
,,,,,,,,,,,,right,0.54202,0,59,59,145,1,kurtít,KT242,nő,1973,19,2021-05-14_18h07.42.163,ranlexdec,2020.2.5,Win32,60
,,,,,,,,,,,,right,0.696165,0,60,60,148,1,mellényzseb,KT242,nő,1973,19,2021-05-14_18h07.42.163,ranlexdec,2020.2.5,Win32,60
,,,,,,,,,,,,right,1.004725,0,61,61,156,1,lazúroz,KT242,nő,1973,19,2021-05-14_18h07.42.163,ranlexdec,2020.2.5,Win32,60
,,,,,,,,,,,,right,1.49787,0,62,62,222,1,nyersarany,KT242,nő,1973,19,2021-05-14_18h07.42.163,ranlexdec,2020.2.5,Win32,60
,,,,,,,,,,,,left,1.666725,0,63,63,142,1,storítő,KT242,nő,1973,19,2021-05-14_18h07.42.163,ranlexdec,2020.2.5,Win32,60
,,,,,,,,,,,,left,1.00407,0,64,64,49,1,ernyak,KT242,nő,1973,19,2021-05-14_18h07.42.163,ranlexdec,2020.2.5,Win32,60
,,,,,,,,,,,,right,0.69078,0,65,65,92,1,lágyék,KT242,nő,1973,19,2021-05-14_18h07.42.163,ranlexdec,2020.2.5,Win32,60
,,,,,,,,,,,,right,0.790905,0,66,66,175,1,szilikát,KT242,nő,1973,19,2021-05-14_18h07.42.163,ranlexdec,2020.2.5,Win32,60
,,,,,,,,,,,,right,0.75801,0,67,67,27,1,sporthorgász,KT242,nő,1973,19,2021-05-14_18h07.42.163,ranlexdec,2020.2.5,Win32,60
,,,,,,,,,,,,right,0.830745,0,68,68,62,1,bizmut,KT242,nő,1973,19,2021-05-14_18h07.42.163,ranlexdec,2020.2.5,Win32,60
,,,,,,,,,,,,left,2.07691,0,69,69,103,1,szabotró,KT242,nő,1973,19,2021-05-14_18h07.42.163,ranlexdec,2020.2.5,Win32,60
,,,,,,,,,,,,left,1.644165,0,70,70,76,1,jegedény,KT242,nő,1973,19,2021-05-14_18h07.42.163,ranlexdec,2020.2.5,Win32,60
,,,,,,,,,,,,right,1.030535,0,71,71,239,1,donhuán,KT242,nő,1973,19,2021-05-14_18h07.42.163,ranlexdec,2020.2.5,Win32,60
,,,,,,,,,,,,right,0.547605,0,72,72,39,1,könnyelmű,KT242,nő,1973,19,2021-05-14_18h07.42.163,ranlexdec,2020.2.5,Win32,60
,,,,,,,,,,,,left,2.174095,0,73,73,23,1,szelégül,KT242,nő,1973,19,2021-05-14_18h07.42.163,ranlexdec,2020.2.5,Win32,60
,,,,,,,,,,,,right,0.793375,0,74,74,113,1,piktogram,KT242,nő,1973,19,2021-05-14_18h07.42.163,ranlexdec,2020.2.5,Win32,60
,,,,,,,,,,,,left,3.55292,0,75,75,234,1,fertilis,KT242,nő,1973,19,2021-05-14_18h07.42.163,ranlexdec,2020.2.5,Win32,60
,,,,,,,,,,,,left,0.78484,0,76,76,77,1,egant,KT242,nő,1973,19,2021-05-14_18h07.42.163,ranlexdec,2020.2.5,Win32,60
,,,,,,,,,,,,left,0.95294,0,77,77,40,1,diviz,KT242,nő,1973,19,2021-05-14_18h07.42.163,ranlexdec,2020.2.5,Win32,60
,,,,,,,,,,,,right,1.031495,0,78,78,46,1,kurzív,KT242,nő,1973,19,2021-05-14_18h07.42.163,ranlexdec,2020.2.5,Win32,60
,,,,,,,,,,,,right,0.58937,0,79,79,179,1,töredék,KT242,nő,1973,19,2021-05-14_18h07.42.163,ranlexdec,2020.2.5,Win32,60
,,,,,,,,,,,,right,0.51729,0,80,80,6,1,csüggeszt,KT242,nő,1973,19,2021-05-14_18h07.42.163,ranlexdec,2020.2.5,Win32,60
,,,,,,,,,,,,left,0.84848,0,81,81,197,1,krakéler,KT242,nő,1973,19,2021-05-14_18h07.42.163,ranlexdec,2020.2.5,Win32,60
,,,,,,,,,,,,right,0.66132,0,82,82,226,1,szalicil,KT242,nő,1973,19,2021-05-14_18h07.42.163,ranlexdec,2020.2.5,Win32,60
,,,,,,,,,,,,right,0.65053,0,83,83,135,1,ion,KT242,nő,1973,19,2021-05-14_18h07.42.163,ranlexdec,2020.2.5,Win32,60
,,,,,,,,,,,,right,1.279745,0,84,84,223,1,árstop,KT242,nő,1973,19,2021-05-14_18h07.42.163,ranlexdec,2020.2.5,Win32,60
,,,,,,,,,,,,right,0.442215,0,85,85,228,1,tarol,KT242,nő,1973,19,2021-05-14_18h07.42.163,ranlexdec,2020.2.5,Win32,60
,,,,,,,,,,,,right,0.72884,0,86,86,151,1,komplex,KT242,nő,1973,19,2021-05-14_18h07.42.163,ranlexdec,2020.2.5,Win32,60
,,,,,,,,,,,,right,0.62717,0,87,87,90,1,orális,KT242,nő,1973,19,2021-05-14_18h07.42.163,ranlexdec,2020.2.5,Win32,60
,,,,,,,,,,,,right,0.41768,0,88,88,67,1,szegény,KT242,nő,1973,19,2021-05-14_18h07.42.163,ranlexdec,2020.2.5,Win32,60
,,,,,,,,,,,,right,0.497545,0,89,89,55,1,látszik,KT242,nő,1973,19,2021-05-14_18h07.42.163,ranlexdec,2020.2.5,Win32,60
,,,,,,,,,,,,right,0.501665,0,90,90,214,1,tenger,KT242,nő,1973,19,2021-05-14_18h07.42.163,ranlexdec,2020.2.5,Win32,60
,,,,,,,,,,,,right,0.561695,0,91,91,209,1,hidegház,KT242,nő,1973,19,2021-05-14_18h07.42.163,ranlexdec,2020.2.5,Win32,60
,,,,,,,,,,,,right,0.53061,0,92,92,9,1,hajlik,KT242,nő,1973,19,2021-05-14_18h07.42.163,ranlexdec,2020.2.5,Win32,60
,,,,,,,,,,,,right,0.502095,0,93,93,230,1,délceg,KT242,nő,1973,19,2021-05-14_18h07.42.163,ranlexdec,2020.2.5,Win32,60
,,,,,,,,,,,,right,1.0497,0,94,94,173,1,glosszáz,KT242,nő,1973,19,2021-05-14_18h07.42.163,ranlexdec,2020.2.5,Win32,60
,,,,,,,,,,,,right,0.559085,0,95,95,89,1,szokik,KT242,nő,1973,19,2021-05-14_18h07.42.163,ranlexdec,2020.2.5,Win32,60
,,,,,,,,,,,,right,0.85565,0,96,96,68,1,kitin,KT242,nő,1973,19,2021-05-14_18h07.42.163,ranlexdec,2020.2.5,Win32,60
,,,,,,,,,,,,right,0.492935,0,97,97,129,1,turné,KT242,nő,1973,19,2021-05-14_18h07.42.163,ranlexdec,2020.2.5,Win32,60
,,,,,,,,,,,,right,2.161255,0,98,98,69,1,gerencsér,KT242,nő,1973,19,2021-05-14_18h07.42.163,ranlexdec,2020.2.5,Win32,60
,,,,,,,,,,,,right,0.76505,0,99,99,70,1,lakotthely,KT242,nő,1973,19,2021-05-14_18h07.42.163,ranlexdec,2020.2.5,Win32,60
,,,,,,,,,,,,right,0.43746,0,100,100,94,1,rotor,KT242,nő,1973,19,2021-05-14_18h07.42.163,ranlexdec,2020.2.5,Win32,60
,,,,,,,,,,,,right,0.492235,0,101,101,125,1,úszamos,KT242,nő,1973,19,2021-05-14_18h07.42.163,ranlexdec,2020.2.5,Win32,60
,,,,,,,,,,,,left,1.272205,0,102,102,134,1,móringol,KT242,nő,1973,19,2021-05-14_18h07.42.163,ranlexdec,2020.2.5,Win32,60
,,,,,,,,,,,,right,0.731265,0,103,103,248,1,örmény,KT242,nő,1973,19,2021-05-14_18h07.42.163,ranlexdec,2020.2.5,Win32,60
,,,,,,,,,,,,right,0.79758,0,104,104,21,1,heveny,KT242,nő,1973,19,2021-05-14_18h07.42.163,ranlexdec,2020.2.5,Win32,60
,,,,,,,,,,,,right,0.72477,0,105,105,195,1,petél,KT242,nő,1973,19,2021-05-14_18h07.42.163,ranlexdec,2020.2.5,Win32,60
,,,,,,,,,,,,right,0.63109,0,106,106,126,1,rejtőzik,KT242,nő,1973,19,2021-05-14_18h07.42.163,ranlexdec,2020.2.5,Win32,60
,,,,,,,,,,,,right,0.79763,0,107,107,25,1,reform,KT242,nő,1973,19,2021-05-14_18h07.42.163,ranlexdec,2020.2.5,Win32,60
,,,,,,,,,,,,right,0.55124,0,108,108,246,1,beton,KT242,nő,1973,19,2021-05-14_18h07.42.163,ranlexdec,2020.2.5,Win32,60
,,,,,,,,,,,,right,0.542305,0,109,109,184,1,profit,KT242,nő,1973,19,2021-05-14_18h07.42.163,ranlexdec,2020.2.5,Win32,60
,,,,,,,,,,,,left,1.00275,0,110,110,107,1,kelől,KT242,nő,1973,19,2021-05-14_18h07.42.163,ranlexdec,2020.2.5,Win32,60
,,,,,,,,,,,,right,0.495545,0,111,111,169,1,komoly,KT242,nő,1973,19,2021-05-14_18h07.42.163,ranlexdec,2020.2.5,Win32,60
,,,,,,,,,,,,left,0.876155,0,112,112,203,1,abeti,KT242,nő,1973,19,2021-05-14_18h07.42.163,ranlexdec,2020.2.5,Win32,60
,,,,,,,,,,,,right,0.6959,0,113,113,141,1,hider,KT242,nő,1973,19,2021-05-14_18h07.42.163,ranlexdec,2020.2.5,Win32,60
,,,,,,,,,,,,right,1.09154,0,114,114,157,1,káder,KT242,nő,1973,19,2021-05-14_18h07.42.163,ranlexdec,2020.2.5,Win32,60
,,,,,,,,,,,,right,1.013395,0,115,115,159,1,elegy,KT242,nő,1973,19,2021-05-14_18h07.42.163,ranlexdec,2020.2.5,Win32,60
,,,,,,,,,,,,right,1.099435,0,116,116,111,1,koenzim,KT242,nő,1973,19,2021-05-14_18h07.42.163,ranlexdec,2020.2.5,Win32,60
,,,,,,,,,,,,right,0.55752,0,117,117,247,1,ausztrál,KT242,nő,1973,19,2021-05-14_18h07.42.163,ranlexdec,2020.2.5,Win32,60
,,,,,,,,,,,,right,0.494935,0,118,118,211,1,tábornagy,KT242,nő,1973,19,2021-05-14_18h07.42.163,ranlexdec,2020.2.5,Win32,60
,,,,,,,,,,,,left,0.987835,0,119,119,2,1,gyásos,KT242,nő,1973,19,2021-05-14_18h07.42.163,ranlexdec,2020.2.5,Win32,60
,,,,,,,,,,,,left,0.80192,0,120,120,198,1,lublika,KT242,nő,1973,19,2021-05-14_18h07.42.163,ranlexdec,2020.2.5,Win32,60
,,,,,,,,,,,,left,1.321035,0,121,121,218,1,tortya,KT242,nő,1973,19,2021-05-14_18h07.42.163,ranlexdec,2020.2.5,Win32,60
,,,,,,,,,,,,left,0.713285,0,122,122,5,1,retta,KT242,nő,1973,19,2021-05-14_18h07.42.163,ranlexdec,2020.2.5,Win32,60
,,,,,,,,,,,,left,1.852445,0,123,123,205,1,mimézis,KT242,nő,1973,19,2021-05-14_18h07.42.163,ranlexdec,2020.2.5,Win32,60
,,,,,,,,,,,,right,0.59865,0,124,124,208,1,lélek,KT242,nő,1973,19,2021-05-14_18h07.42.163,ranlexdec,2020.2.5,Win32,60
,,,,,,,,,,,,right,0.805535,0,125,125,18,1,csapattest,KT242,nő,1973,19,2021-05-14_18h07.42.163,ranlexdec,2020.2.5,Win32,60
,,,,,,,,,,,,right,0.55714,0,126,126,132,1,hatalom,KT242,nő,1973,19,2021-05-14_18h07.42.163,ranlexdec,2020.2.5,Win32,60
,,,,,,,,,,,,left,0.95148,0,127,127,102,1,pentez,KT242,nő,1973,19,2021-05-14_18h07.42.163,ranlexdec,2020.2.5,Win32,60
,,,,,,,,,,,,right,0.654775,0,128,128,59,1,ómagyar,KT242,nő,1973,19,2021-05-14_18h07.42.163,ranlexdec,2020.2.5,Win32,60
,,,,,,,,,,,,left,0.627385,0,129,129,187,1,testnedv,KT242,nő,1973,19,2021-05-14_18h07.42.163,ranlexdec,2020.2.5,Win32,60
,,,,,,,,,,,,right,0.68354,0,130,130,64,1,hálózsák,KT242,nő,1973,19,2021-05-14_18h07.42.163,ranlexdec,2020.2.5,Win32,60
,,,,,,,,,,,,left,3.34304,0,131,131,117,1,ószeven,KT242,nő,1973,19,2021-05-14_18h07.42.163,ranlexdec,2020.2.5,Win32,60
,,,,,,,,,,,,right,0.81478,0,132,132,232,1,tropikus,KT242,nő,1973,19,2021-05-14_18h07.42.163,ranlexdec,2020.2.5,Win32,60
,,,,,,,,,,,,right,0.444995,0,133,133,144,1,rövid,KT242,nő,1973,19,2021-05-14_18h07.42.163,ranlexdec,2020.2.5,Win32,60
,,,,,,,,,,,,right,0.58746,0,134,134,79,1,extrém,KT242,nő,1973,19,2021-05-14_18h07.42.163,ranlexdec,2020.2.5,Win32,60
,,,,,,,,,,,,right,4.02981,0,135,135,243,1,dipeptid,KT242,nő,1973,19,2021-05-14_18h07.42.163,ranlexdec,2020.2.5,Win32,60
,,,,,,,,,,,,left,1.864235,0,136,136,109,1,vényegő,KT242,nő,1973,19,2021-05-14_18h07.42.163,ranlexdec,2020.2.5,Win32,60
,,,,,,,,,,,,left,1.82438,0,137,137,219,1,szimboló,KT242,nő,1973,19,2021-05-14_18h07.42.163,ranlexdec,2020.2.5,Win32,60
,,,,,,,,,,,,left,0.89822,0,138,138,52,1,kunyai,KT242,nő,1973,19,2021-05-14_18h07.42.163,ranlexdec,2020.2.5,Win32,60
,,,,,,,,,,,,left,1.102295,0,139,139,127,1,rozintem,KT242,nő,1973,19,2021-05-14_18h07.42.163,ranlexdec,2020.2.5,Win32,60
,,,,,,,,,,,,right,0.558635,0,140,140,185,1,gyülemlik,KT242,nő,1973,19,2021-05-14_18h07.42.163,ranlexdec,2020.2.5,Win32,60
,,,,,,,,,,,,right,0.985015,0,141,141,57,1,lejmol,KT242,nő,1973,19,2021-05-14_18h07.42.163,ranlexdec,2020.2.5,Win32,60
,,,,,,,,,,,,right,3.671065,0,142,142,17,1,magmatit,KT242,nő,1973,19,2021-05-14_18h07.42.163,ranlexdec,2020.2.5,Win32,60
,,,,,,,,,,,,left,0.95345,0,143,143,72,1,mihálóz,KT242,nő,1973,19,2021-05-14_18h07.42.163,ranlexdec,2020.2.5,Win32,60
,,,,,,,,,,,,left,0.913615,0,144,144,242,1,rekvizit,KT242,nő,1973,19,2021-05-14_18h07.42.163,ranlexdec,2020.2.5,Win32,60
,,,,,,,,,,,,right,1.420395,0,145,145,60,1,bárányfark,KT242,nő,1973,19,2021-05-14_18h07.42.163,ranlexdec,2020.2.5,Win32,60
,,,,,,,,,,,,right,1.520815,0,146,146,233,1,templomoz,KT242,nő,1973,19,2021-05-14_18h07.42.163,ranlexdec,2020.2.5,Win32,60
,,,,,,,,,,,,left,1.03099,0,147,147,192,1,norvend,KT242,nő,1973,19,2021-05-14_18h07.42.163,ranlexdec,2020.2.5,Win32,60
,,,,,,,,,,,,left,0.86808,0,148,148,36,1,tröshet,KT242,nő,1973,19,2021-05-14_18h07.42.163,ranlexdec,2020.2.5,Win32,60
,,,,,,,,,,,,right,0.818285,0,149,149,43,1,közhely,KT242,nő,1973,19,2021-05-14_18h07.42.163,ranlexdec,2020.2.5,Win32,60
,,,,,,,,,,,,right,0.935755,0,150,150,188,1,sugár,KT242,nő,1973,19,2021-05-14_18h07.42.163,ranlexdec,2020.2.5,Win32,60
,,,,,,,,,,,,right,0.502945,0,151,151,78,1,törékeny,KT242,nő,1973,19,2021-05-14_18h07.42.163,ranlexdec,2020.2.5,Win32,60
,,,,,,,,,,,,right,0.586975,0,152,152,98,1,mítosz,KT242,nő,1973,19,2021-05-14_18h07.42.163,ranlexdec,2020.2.5,Win32,60
,,,,,,,,,,,,right,0.691195,0,153,153,202,1,abszint,KT242,nő,1973,19,2021-05-14_18h07.42.163,ranlexdec,2020.2.5,Win32,60
,,,,,,,,,,,,right,0.774655,0,154,154,54,1,fürkész,KT242,nő,1973,19,2021-05-14_18h07.42.163,ranlexdec,2020.2.5,Win32,60
,,,,,,,,,,,,right,0.6072,0,155,155,200,1,biliárd,KT242,nő,1973,19,2021-05-14_18h07.42.163,ranlexdec,2020.2.5,Win32,60
,,,,,,,,,,,,right,0.91043,0,156,156,115,1,fajansz,KT242,nő,1973,19,2021-05-14_18h07.42.163,ranlexdec,2020.2.5,Win32,60
,,,,,,,,,,,,right,0.434255,0,157,157,164,1,kurzivál,KT242,nő,1973,19,2021-05-14_18h07.42.163,ranlexdec,2020.2.5,Win32,60
,,,,,,,,,,,,right,3.279645,0,158,158,106,1,lalláz,KT242,nő,1973,19,2021-05-14_18h07.42.163,ranlexdec,2020.2.5,Win32,60
,,,,,,,,,,,,right,0.62681,0,159,159,178,1,sziszeg,KT242,nő,1973,19,2021-05-14_18h07.42.163,ranlexdec,2020.2.5,Win32,60
,,,,,,,,,,,,left,1.23375,0,160,160,97,1,vésségi,KT242,nő,1973,19,2021-05-14_18h07.42.163,ranlexdec,2020.2.5,Win32,60
,,,,,,,,,,,,right,0.981835,0,161,161,174,1,cianid,KT242,nő,1973,19,2021-05-14_18h07.42.163,ranlexdec,2020.2.5,Win32,60
,,,,,,,,,,,,left,1.62894,0,162,162,166,1,retálhit,KT242,nő,1973,19,2021-05-14_18h07.42.163,ranlexdec,2020.2.5,Win32,60
,,,,,,,,,,,,right,0.711915,0,163,163,182,1,nagyszámú,KT242,nő,1973,19,2021-05-14_18h07.42.163,ranlexdec,2020.2.5,Win32,60
,,,,,,,,,,,,right,0.441855,0,164,164,0,1,irány,KT242,nő,1973,19,2021-05-14_18h07.42.163,ranlexdec,2020.2.5,Win32,60
,,,,,,,,,,,,right,0.67329,0,165,165,85,1,glükóz,KT242,nő,1973,19,2021-05-14_18h07.42.163,ranlexdec,2020.2.5,Win32,60
,,,,,,,,,,,,right,0.446435,0,166,166,58,1,barát,KT242,nő,1973,19,2021-05-14_18h07.42.163,ranlexdec,2020.2.5,Win32,60
,,,,,,,,,,,,right,0.533615,0,167,167,10,1,nárcisz,KT242,nő,1973,19,2021-05-14_18h07.42.163,ranlexdec,2020.2.5,Win32,60
,,,,,,,,,,,,right,0.76821,0,168,168,158,1,hidroxid,KT242,nő,1973,19,2021-05-14_18h07.42.163,ranlexdec,2020.2.5,Win32,60
,,,,,,,,,,,,right,0.606715,0,169,169,1,1,csapdáz,KT242,nő,1973,19,2021-05-14_18h07.42.163,ranlexdec,2020.2.5,Win32,60
,,,,,,,,,,,,right,0.421915,0,170,170,201,1,szempont,KT242,nő,1973,19,2021-05-14_18h07.42.163,ranlexdec,2020.2.5,Win32,60
,,,,,,,,,,,,right,0.469935,0,171,171,249,1,kencéz,KT242,nő,1973,19,2021-05-14_18h07.42.163,ranlexdec,2020.2.5,Win32,60
,,,,,,,,,,,,right,0.603675,0,172,172,170,1,változik,KT242,nő,1973,19,2021-05-14_18h07.42.163,ranlexdec,2020.2.5,Win32,60
,,,,,,,,,,,,right,0.617845,0,173,173,8,1,kulcscsont,KT242,nő,1973,19,2021-05-14_18h07.42.163,ranlexdec,2020.2.5,Win32,60
,,,,,,,,,,,,right,0.688545,0,174,174,193,1,bacon,KT242,nő,1973,19,2021-05-14_18h07.42.163,ranlexdec,2020.2.5,Win32,60
,,,,,,,,,,,,right,0.476895,0,175,175,104,1,dolog,KT242,nő,1973,19,2021-05-14_18h07.42.163,ranlexdec,2020.2.5,Win32,60
,,,,,,,,,,,,right,0.41758,0,176,176,28,1,gazdag,KT242,nő,1973,19,2021-05-14_18h07.42.163,ranlexdec,2020.2.5,Win32,60
,,,,,,,,,,,,right,0.705225,0,177,177,229,1,lemesség,KT242,nő,1973,19,2021-05-14_18h07.42.163,ranlexdec,2020.2.5,Win32,60
,,,,,,,,,,,,right,0.659975,0,178,178,56,1,kanalaz,KT242,nő,1973,19,2021-05-14_18h07.42.163,ranlexdec,2020.2.5,Win32,60
,,,,,,,,,,,,left,0.977675,0,179,179,163,1,kollapszus,KT242,nő,1973,19,2021-05-14_18h07.42.163,ranlexdec,2020.2.5,Win32,60
,,,,,,,,,,,,right,0.840835,0,180,180,161,1,példakép,KT242,nő,1973,19,2021-05-14_18h07.42.163,ranlexdec,2020.2.5,Win32,60
,,,,,,,,,,,,left,0.93523,0,181,181,137,1,aragas,KT242,nő,1973,19,2021-05-14_18h07.42.163,ranlexdec,2020.2.5,Win32,60
,,,,,,,,,,,,right,0.878715,0,182,182,212,1,farkasbab,KT242,nő,1973,19,2021-05-14_18h07.42.163,ranlexdec,2020.2.5,Win32,60
,,,,,,,,,,,,right,0.754625,0,183,183,51,1,bajuszfű,KT242,nő,1973,19,2021-05-14_18h07.42.163,ranlexdec,2020.2.5,Win32,60
,,,,,,,,,,,,right,0.963655,0,184,184,146,1,kondenzcsík,KT242,nő,1973,19,2021-05-14_18h07.42.163,ranlexdec,2020.2.5,Win32,60
,,,,,,,,,,,,right,0.50785,0,185,185,227,1,kötődik,KT242,nő,1973,19,2021-05-14_18h07.42.163,ranlexdec,2020.2.5,Win32,60
,,,,,,,,,,,,right,0.45563,0,186,186,168,1,grafikon,KT242,nő,1973,19,2021-05-14_18h07.42.163,ranlexdec,2020.2.5,Win32,60
,,,,,,,,,,,,left,1.525135,0,187,187,240,1,áradmány,KT242,nő,1973,19,2021-05-14_18h07.42.163,ranlexdec,2020.2.5,Win32,60
,,,,,,,,,,,,right,0.49344,0,188,188,7,1,űrlap,KT242,nő,1973,19,2021-05-14_18h07.42.163,ranlexdec,2020.2.5,Win32,60
,,,,,,,,,,,,right,0.561735,0,189,189,20,1,század,KT242,nő,1973,19,2021-05-14_18h07.42.163,ranlexdec,2020.2.5,Win32,60
,,,,,,,,,,,,right,0.4835,0,190,190,165,1,lépték,KT242,nő,1973,19,2021-05-14_18h07.42.163,ranlexdec,2020.2.5,Win32,60
,,,,,,,,,,,,left,1.527345,0,191,191,29,1,novagár,KT242,nő,1973,19,2021-05-14_18h07.42.163,ranlexdec,2020.2.5,Win32,60
,,,,,,,,,,,,right,0.550795,0,192,192,45,1,népszerű,KT242,nő,1973,19,2021-05-14_18h07.42.163,ranlexdec,2020.2.5,Win32,60
,,,,,,,,,,,,left,0.832595,0,193,193,24,1,kosi,KT242,nő,1973,19,2021-05-14_18h07.42.163,ranlexdec,2020.2.5,Win32,60
,,,,,,,,,,,,left,1.310595,0,194,194,155,1,megpadék,KT242,nő,1973,19,2021-05-14_18h07.42.163,ranlexdec,2020.2.5,Win32,60
,,,,,,,,,,,,right,1.566875,0,195,195,44,1,ingváll,KT242,nő,1973,19,2021-05-14_18h07.42.163,ranlexdec,2020.2.5,Win32,60
,,,,,,,,,,,,right,0.550215,0,196,196,154,1,keresztény,KT242,nő,1973,19,2021-05-14_18h07.42.163,ranlexdec,2020.2.5,Win32,60
,,,,,,,,,,,,right,0.470805,0,197,197,124,1,alkalom,KT242,nő,1973,19,2021-05-14_18h07.42.163,ranlexdec,2020.2.5,Win32,60
,,,,,,,,,,,,right,0.70815,0,198,198,172,1,kettősfém,KT242,nő,1973,19,2021-05-14_18h07.42.163,ranlexdec,2020.2.5,Win32,60
,,,,,,,,,,,,right,0.479075,0,199,199,100,1,balközép,KT242,nő,1973,19,2021-05-14_18h07.42.163,ranlexdec,2020.2.5,Win32,60
,,,,,,,,,,,,right,0.54106,0,200,200,114,1,tartalom,KT242,nő,1973,19,2021-05-14_18h07.42.163,ranlexdec,2020.2.5,Win32,60
,,,,,,,,,,,,right,0.5982,0,201,201,206,1,horizont,KT242,nő,1973,19,2021-05-14_18h07.42.163,ranlexdec,2020.2.5,Win32,60
,,,,,,,,,,,,right,0.82235,0,202,202,143,1,rojtoz,KT242,nő,1973,19,2021-05-14_18h07.42.163,ranlexdec,2020.2.5,Win32,60
,,,,,,,,,,,,right,0.820815,0,203,203,4,1,viszonvád,KT242,nő,1973,19,2021-05-14_18h07.42.163,ranlexdec,2020.2.5,Win32,60
,,,,,,,,,,,,right,0.51424,0,204,204,136,1,rücsök,KT242,nő,1973,19,2021-05-14_18h07.42.163,ranlexdec,2020.2.5,Win32,60
,,,,,,,,,,,,right,1.77481,0,205,205,63,1,viszkózus,KT242,nő,1973,19,2021-05-14_18h07.42.163,ranlexdec,2020.2.5,Win32,60
,,,,,,,,,,,,right,0.98696,0,206,206,235,1,transzplantál,KT242,nő,1973,19,2021-05-14_18h07.42.163,ranlexdec,2020.2.5,Win32,60
,,,,,,,,,,,,right,0.45761,0,207,207,130,1,derít,KT242,nő,1973,19,2021-05-14_18h07.42.163,ranlexdec,2020.2.5,Win32,60
,,,,,,,,,,,,left,0.88718,0,208,208,83,1,vonzum,KT242,nő,1973,19,2021-05-14_18h07.42.163,ranlexdec,2020.2.5,Win32,60
,,,,,,,,,,,,right,0.53862,0,209,209,19,1,tangózik,KT242,nő,1973,19,2021-05-14_18h07.42.163,ranlexdec,2020.2.5,Win32,60
,,,,,,,,,,,,right,0.62093,0,210,210,210,1,karakter,KT242,nő,1973,19,2021-05-14_18h07.42.163,ranlexdec,2020.2.5,Win32,60
,,,,,,,,,,,,right,0.516565,0,211,211,88,1,pohár,KT242,nő,1973,19,2021-05-14_18h07.42.163,ranlexdec,2020.2.5,Win32,60
,,,,,,,,,,,,right,0.44678,0,212,212,231,1,igény,KT242,nő,1973,19,2021-05-14_18h07.42.163,ranlexdec,2020.2.5,Win32,60
,,,,,,,,,,,,right,1.165575,0,213,213,95,1,skubizik,KT242,nő,1973,19,2021-05-14_18h07.42.163,ranlexdec,2020.2.5,Win32,60
,,,,,,,,,,,,left,1.93309,0,214,214,150,1,orront,KT242,nő,1973,19,2021-05-14_18h07.42.163,ranlexdec,2020.2.5,Win32,60
,,,,,,,,,,,,right,0.634465,0,215,215,238,1,bolgár,KT242,nő,1973,19,2021-05-14_18h07.42.163,ranlexdec,2020.2.5,Win32,60
,,,,,,,,,,,,right,0.649105,0,216,216,48,1,reagál,KT242,nő,1973,19,2021-05-14_18h07.42.163,ranlexdec,2020.2.5,Win32,60
,,,,,,,,,,,,right,0.48635,0,217,217,116,1,árus,KT242,nő,1973,19,2021-05-14_18h07.42.163,ranlexdec,2020.2.5,Win32,60
,,,,,,,,,,,,left,1.027645,0,218,218,71,1,extuál,KT242,nő,1973,19,2021-05-14_18h07.42.163,ranlexdec,2020.2.5,Win32,60
,,,,,,,,,,,,left,1.36931,0,219,219,204,1,kocskesi,KT242,nő,1973,19,2021-05-14_18h07.42.163,ranlexdec,2020.2.5,Win32,60
,,,,,,,,,,,,left,1.29439,0,220,220,112,1,méhezter,KT242,nő,1973,19,2021-05-14_18h07.42.163,ranlexdec,2020.2.5,Win32,60
,,,,,,,,,,,,right,0.711845,0,221,221,160,1,százalék,KT242,nő,1973,19,2021-05-14_18h07.42.163,ranlexdec,2020.2.5,Win32,60
,,,,,,,,,,,,right,1.010675,0,222,222,32,1,genom,KT242,nő,1973,19,2021-05-14_18h07.42.163,ranlexdec,2020.2.5,Win32,60
,,,,,,,,,,,,left,1.344495,0,223,223,91,1,tajtásos,KT242,nő,1973,19,2021-05-14_18h07.42.163,ranlexdec,2020.2.5,Win32,60
,,,,,,,,,,,,left,0.824505,0,224,224,16,1,cséltás,KT242,nő,1973,19,2021-05-14_18h07.42.163,ranlexdec,2020.2.5,Win32,60
,,,,,,,,,,,,right,0.774255,0,225,225,74,1,püffeszt,KT242,nő,1973,19,2021-05-14_18h07.42.163,ranlexdec,2020.2.5,Win32,60
,,,,,,,,,,,,left,0.958455,0,226,226,84,1,kúpol,KT242,nő,1973,19,2021-05-14_18h07.42.163,ranlexdec,2020.2.5,Win32,60
,,,,,,,,,,,,left,0.702745,0,227,227,119,1,cugehőr,KT242,nő,1973,19,2021-05-14_18h07.42.163,ranlexdec,2020.2.5,Win32,60
,,,,,,,,,,,,right,0.57785,0,228,228,110,1,időszak,KT242,nő,1973,19,2021-05-14_18h07.42.163,ranlexdec,2020.2.5,Win32,60
,,,,,,,,,,,,right,0.954555,0,229,229,190,1,rámáz,KT242,nő,1973,19,2021-05-14_18h07.42.163,ranlexdec,2020.2.5,Win32,60
,,,,,,,,,,,,left,1.018955,0,230,230,82,1,kvéker,KT242,nő,1973,19,2021-05-14_18h07.42.163,ranlexdec,2020.2.5,Win32,60
,,,,,,,,,,,,right,0.664265,0,231,231,245,1,ellenfél,KT242,nő,1973,19,2021-05-14_18h07.42.163,ranlexdec,2020.2.5,Win32,60
,,,,,,,,,,,,left,3.212985,0,232,232,108,1,konyrúd,KT242,nő,1973,19,2021-05-14_18h07.42.163,ranlexdec,2020.2.5,Win32,60
,,,,,,,,,,,,left,2.083455,0,233,233,131,1,vetézmés,KT242,nő,1973,19,2021-05-14_18h07.42.163,ranlexdec,2020.2.5,Win32,60
,,,,,,,,,,,,left,1.547155,0,234,234,42,1,összalaj,KT242,nő,1973,19,2021-05-14_18h07.42.163,ranlexdec,2020.2.5,Win32,60
,,,,,,,,,,,,right,0.67359,0,235,235,221,1,törődik,KT242,nő,1973,19,2021-05-14_18h07.42.163,ranlexdec,2020.2.5,Win32,60
,,,,,,,,,,,,left,0.97463,0,236,236,207,1,diffamál,KT242,nő,1973,19,2021-05-14_18h07.42.163,ranlexdec,2020.2.5,Win32,60
,,,,,,,,,,,,right,1.126035,0,237,237,147,1,referál,KT242,nő,1973,19,2021-05-14_18h07.42.163,ranlexdec,2020.2.5,Win32,60
,,,,,,,,,,,,left,0.87844,0,238,238,121,1,aggófű,KT242,nő,1973,19,2021-05-14_18h07.42.163,ranlexdec,2020.2.5,Win32,60
,,,,,,,,,,,,right,0.738275,0,239,239,152,1,rakódik,KT242,nő,1973,19,2021-05-14_18h07.42.163,ranlexdec,2020.2.5,Win32,60
,,,,,,,,,,,,right,1.30803,0,240,240,15,1,pauzál,KT242,nő,1973,19,2021-05-14_18h07.42.163,ranlexdec,2020.2.5,Win32,60
,,,,,,,,,,,,right,0.516905,0,241,241,47,1,döföl,KT242,nő,1973,19,2021-05-14_18h07.42.163,ranlexdec,2020.2.5,Win32,60
,,,,,,,,,,,,right,0.53614,0,242,242,61,1,régész,KT242,nő,1973,19,2021-05-14_18h07.42.163,ranlexdec,2020.2.5,Win32,60
,,,,,,,,,,,,left,1.13816,0,243,243,191,1,hitódó,KT242,nő,1973,19,2021-05-14_18h07.42.163,ranlexdec,2020.2.5,Win32,60
,,,,,,,,,,,,right,0.96218,0,244,244,220,1,csontdarab,KT242,nő,1973,19,2021-05-14_18h07.42.163,ranlexdec,2020.2.5,Win32,60
,,,,,,,,,,,,right,0.51445,0,245,245,12,1,gyapot,KT242,nő,1973,19,2021-05-14_18h07.42.163,ranlexdec,2020.2.5,Win32,60
,,,,,,,,,,,,right,0.78206,0,246,246,241,1,kárpit,KT242,nő,1973,19,2021-05-14_18h07.42.163,ranlexdec,2020.2.5,Win32,60
,,,,,,,,,,,,right,0.75768,0,247,247,237,1,forgórész,KT242,nő,1973,19,2021-05-14_18h07.42.163,ranlexdec,2020.2.5,Win32,60
,,,,,,,,,,,,left,1.03923,0,248,248,181,1,dohorpák,KT242,nő,1973,19,2021-05-14_18h07.42.163,ranlexdec,2020.2.5,Win32,60
,,,,,,,,,,,,right,0.81205,0,249,249,149,1,anorák,KT242,nő,1973,19,2021-05-14_18h07.42.163,ranlexdec,2020.2.5,Win32,60
