ready2_2.keys,ready2_2.rt,ready2.keys,ready2.rt,key_resp.keys,key_resp.rt,key_resp_3.keys,key_resp_3.rt,key_resp_2.keys,key_resp_2.rt,ready3.keys,ready3.rt,resp.keys,resp.rt,withinBlock.thisRepN,withinBlock.thisTrialN,withinBlock.thisN,withinBlock.thisIndex,withinBlock.ran,word,Azonosító,Az Ön neme,Születési éve,Hány évet töltött az iskolapadban (egyetemet is beleértve),date,expName,psychopyVersion,OS,frameRate
space,51.227885,space,23.92551,right,3.10075,left,2.23926,left,1.836895,space,8.16043,right,3.081315,0,0,0,193,1,bacon,KT238,nő,1996.12.19.,15,2021-05-14_14h52.45.524,ranlexdec,2020.2.5,Win32,60
,,,,,,,,,,,,right,0.918795,0,1,1,194,1,végbél,KT238,nő,1996.12.19.,15,2021-05-14_14h52.45.524,ranlexdec,2020.2.5,Win32,60
,,,,,,,,,,,,right,3.06958,0,2,2,6,1,csüggeszt,KT238,nő,1996.12.19.,15,2021-05-14_14h52.45.524,ranlexdec,2020.2.5,Win32,60
,,,,,,,,,,,,left,1.048255,0,3,3,47,1,döföl,KT238,nő,1996.12.19.,15,2021-05-14_14h52.45.524,ranlexdec,2020.2.5,Win32,60
,,,,,,,,,,,,left,1.07445,0,4,4,52,1,kunyai,KT238,nő,1996.12.19.,15,2021-05-14_14h52.45.524,ranlexdec,2020.2.5,Win32,60
,,,,,,,,,,,,left,1.983285,0,5,5,219,1,szimboló,KT238,nő,1996.12.19.,15,2021-05-14_14h52.45.524,ranlexdec,2020.2.5,Win32,60
,,,,,,,,,,,,left,1.67319,0,6,6,82,1,kvéker,KT238,nő,1996.12.19.,15,2021-05-14_14h52.45.524,ranlexdec,2020.2.5,Win32,60
,,,,,,,,,,,,right,1.167775,0,7,7,156,1,lazúroz,KT238,nő,1996.12.19.,15,2021-05-14_14h52.45.524,ranlexdec,2020.2.5,Win32,60
,,,,,,,,,,,,left,1.137105,0,8,8,240,1,áradmány,KT238,nő,1996.12.19.,15,2021-05-14_14h52.45.524,ranlexdec,2020.2.5,Win32,60
,,,,,,,,,,,,right,2.18252,0,9,9,35,1,türemlik,KT238,nő,1996.12.19.,15,2021-05-14_14h52.45.524,ranlexdec,2020.2.5,Win32,60
,,,,,,,,,,,,left,0.91876,0,10,10,225,1,bajadér,KT238,nő,1996.12.19.,15,2021-05-14_14h52.45.524,ranlexdec,2020.2.5,Win32,60
,,,,,,,,,,,,right,1.139,0,11,11,25,1,reform,KT238,nő,1996.12.19.,15,2021-05-14_14h52.45.524,ranlexdec,2020.2.5,Win32,60
,,,,,,,,,,,,left,2.254175,0,12,12,93,1,kilukát,KT238,nő,1996.12.19.,15,2021-05-14_14h52.45.524,ranlexdec,2020.2.5,Win32,60
,,,,,,,,,,,,right,0.83753,0,13,13,231,1,igény,KT238,nő,1996.12.19.,15,2021-05-14_14h52.45.524,ranlexdec,2020.2.5,Win32,60
,,,,,,,,,,,,right,2.30063,0,14,14,74,1,püffeszt,KT238,nő,1996.12.19.,15,2021-05-14_14h52.45.524,ranlexdec,2020.2.5,Win32,60
,,,,,,,,,,,,right,1.84922,0,15,15,148,1,mellényzseb,KT238,nő,1996.12.19.,15,2021-05-14_14h52.45.524,ranlexdec,2020.2.5,Win32,60
,,,,,,,,,,,,left,0.900595,0,16,16,26,1,aurult,KT238,nő,1996.12.19.,15,2021-05-14_14h52.45.524,ranlexdec,2020.2.5,Win32,60
,,,,,,,,,,,,right,1.24995,0,17,17,136,1,rücsök,KT238,nő,1996.12.19.,15,2021-05-14_14h52.45.524,ranlexdec,2020.2.5,Win32,60
,,,,,,,,,,,,left,1.27066,0,18,18,204,1,kocskesi,KT238,nő,1996.12.19.,15,2021-05-14_14h52.45.524,ranlexdec,2020.2.5,Win32,60
,,,,,,,,,,,,right,0.795255,0,19,19,7,1,űrlap,KT238,nő,1996.12.19.,15,2021-05-14_14h52.45.524,ranlexdec,2020.2.5,Win32,60
,,,,,,,,,,,,left,1.1424,0,20,20,117,1,ószeven,KT238,nő,1996.12.19.,15,2021-05-14_14h52.45.524,ranlexdec,2020.2.5,Win32,60
,,,,,,,,,,,,right,0.96277,0,21,21,113,1,piktogram,KT238,nő,1996.12.19.,15,2021-05-14_14h52.45.524,ranlexdec,2020.2.5,Win32,60
,,,,,,,,,,,,right,0.768875,0,22,22,86,1,jármű,KT238,nő,1996.12.19.,15,2021-05-14_14h52.45.524,ranlexdec,2020.2.5,Win32,60
,,,,,,,,,,,,right,0.8666,0,23,23,45,1,népszerű,KT238,nő,1996.12.19.,15,2021-05-14_14h52.45.524,ranlexdec,2020.2.5,Win32,60
,,,,,,,,,,,,left,1.06678,0,24,24,224,1,truccol,KT238,nő,1996.12.19.,15,2021-05-14_14h52.45.524,ranlexdec,2020.2.5,Win32,60
,,,,,,,,,,,,right,1.154535,0,25,25,68,1,kitin,KT238,nő,1996.12.19.,15,2021-05-14_14h52.45.524,ranlexdec,2020.2.5,Win32,60
,,,,,,,,,,,,right,1.13958,0,26,26,105,1,tököl,KT238,nő,1996.12.19.,15,2021-05-14_14h52.45.524,ranlexdec,2020.2.5,Win32,60
,,,,,,,,,,,,left,3.88407,0,27,27,249,1,kencéz,KT238,nő,1996.12.19.,15,2021-05-14_14h52.45.524,ranlexdec,2020.2.5,Win32,60
,,,,,,,,,,,,right,0.738685,0,28,28,43,1,közhely,KT238,nő,1996.12.19.,15,2021-05-14_14h52.45.524,ranlexdec,2020.2.5,Win32,60
,,,,,,,,,,,,right,1.039055,0,29,29,188,1,sugár,KT238,nő,1996.12.19.,15,2021-05-14_14h52.45.524,ranlexdec,2020.2.5,Win32,60
,,,,,,,,,,,,right,1.33429,0,30,30,94,1,rotor,KT238,nő,1996.12.19.,15,2021-05-14_14h52.45.524,ranlexdec,2020.2.5,Win32,60
,,,,,,,,,,,,right,0.832985,0,31,31,104,1,dolog,KT238,nő,1996.12.19.,15,2021-05-14_14h52.45.524,ranlexdec,2020.2.5,Win32,60
,,,,,,,,,,,,left,1.23416,0,32,32,42,1,összalaj,KT238,nő,1996.12.19.,15,2021-05-14_14h52.45.524,ranlexdec,2020.2.5,Win32,60
,,,,,,,,,,,,right,0.767635,0,33,33,179,1,töredék,KT238,nő,1996.12.19.,15,2021-05-14_14h52.45.524,ranlexdec,2020.2.5,Win32,60
,,,,,,,,,,,,left,1.45237,0,34,34,186,1,piláf,KT238,nő,1996.12.19.,15,2021-05-14_14h52.45.524,ranlexdec,2020.2.5,Win32,60
,,,,,,,,,,,,left,1.306075,0,35,35,51,1,bajuszfű,KT238,nő,1996.12.19.,15,2021-05-14_14h52.45.524,ranlexdec,2020.2.5,Win32,60
,,,,,,,,,,,,left,0.86483,0,36,36,223,1,árstop,KT238,nő,1996.12.19.,15,2021-05-14_14h52.45.524,ranlexdec,2020.2.5,Win32,60
,,,,,,,,,,,,right,0.684825,0,37,37,152,1,rakódik,KT238,nő,1996.12.19.,15,2021-05-14_14h52.45.524,ranlexdec,2020.2.5,Win32,60
,,,,,,,,,,,,right,0.76695,0,38,38,129,1,turné,KT238,nő,1996.12.19.,15,2021-05-14_14h52.45.524,ranlexdec,2020.2.5,Win32,60
,,,,,,,,,,,,left,1.87154,0,39,39,197,1,krakéler,KT238,nő,1996.12.19.,15,2021-05-14_14h52.45.524,ranlexdec,2020.2.5,Win32,60
,,,,,,,,,,,,left,1.020605,0,40,40,139,1,vároló,KT238,nő,1996.12.19.,15,2021-05-14_14h52.45.524,ranlexdec,2020.2.5,Win32,60
,,,,,,,,,,,,left,0.971295,0,41,41,218,1,tortya,KT238,nő,1996.12.19.,15,2021-05-14_14h52.45.524,ranlexdec,2020.2.5,Win32,60
,,,,,,,,,,,,left,0.95627,0,42,42,102,1,pentez,KT238,nő,1996.12.19.,15,2021-05-14_14h52.45.524,ranlexdec,2020.2.5,Win32,60
,,,,,,,,,,,,right,0.650855,0,43,43,183,1,színpad,KT238,nő,1996.12.19.,15,2021-05-14_14h52.45.524,ranlexdec,2020.2.5,Win32,60
,,,,,,,,,,,,left,2.65938,0,44,44,157,1,káder,KT238,nő,1996.12.19.,15,2021-05-14_14h52.45.524,ranlexdec,2020.2.5,Win32,60
,,,,,,,,,,,,right,1.89224,0,45,45,209,1,hidegház,KT238,nő,1996.12.19.,15,2021-05-14_14h52.45.524,ranlexdec,2020.2.5,Win32,60
,,,,,,,,,,,,left,1.802745,0,46,46,153,1,kontrapunkt,KT238,nő,1996.12.19.,15,2021-05-14_14h52.45.524,ranlexdec,2020.2.5,Win32,60
,,,,,,,,,,,,right,1.301655,0,47,47,236,1,csatázik,KT238,nő,1996.12.19.,15,2021-05-14_14h52.45.524,ranlexdec,2020.2.5,Win32,60
,,,,,,,,,,,,left,1.82352,0,48,48,60,1,bárányfark,KT238,nő,1996.12.19.,15,2021-05-14_14h52.45.524,ranlexdec,2020.2.5,Win32,60
,,,,,,,,,,,,left,1.6379,0,49,49,16,1,cséltás,KT238,nő,1996.12.19.,15,2021-05-14_14h52.45.524,ranlexdec,2020.2.5,Win32,60
,,,,,,,,,,,,right,0.70627,0,50,50,124,1,alkalom,KT238,nő,1996.12.19.,15,2021-05-14_14h52.45.524,ranlexdec,2020.2.5,Win32,60
,,,,,,,,,,,,right,1.5788,0,51,51,199,1,ború,KT238,nő,1996.12.19.,15,2021-05-14_14h52.45.524,ranlexdec,2020.2.5,Win32,60
,,,,,,,,,,,,left,1.10189,0,52,52,21,1,heveny,KT238,nő,1996.12.19.,15,2021-05-14_14h52.45.524,ranlexdec,2020.2.5,Win32,60
,,,,,,,,,,,,right,1.432975,0,53,53,145,1,kurtít,KT238,nő,1996.12.19.,15,2021-05-14_14h52.45.524,ranlexdec,2020.2.5,Win32,60
,,,,,,,,,,,,left,1.58761,0,54,54,195,1,petél,KT238,nő,1996.12.19.,15,2021-05-14_14h52.45.524,ranlexdec,2020.2.5,Win32,60
,,,,,,,,,,,,right,1.513515,0,55,55,147,1,referál,KT238,nő,1996.12.19.,15,2021-05-14_14h52.45.524,ranlexdec,2020.2.5,Win32,60
,,,,,,,,,,,,right,0.736235,0,56,56,78,1,törékeny,KT238,nő,1996.12.19.,15,2021-05-14_14h52.45.524,ranlexdec,2020.2.5,Win32,60
,,,,,,,,,,,,right,1.53728,0,57,57,200,1,biliárd,KT238,nő,1996.12.19.,15,2021-05-14_14h52.45.524,ranlexdec,2020.2.5,Win32,60
,,,,,,,,,,,,right,0.892385,0,58,58,187,1,testnedv,KT238,nő,1996.12.19.,15,2021-05-14_14h52.45.524,ranlexdec,2020.2.5,Win32,60
,,,,,,,,,,,,right,1.15373,0,59,59,170,1,változik,KT238,nő,1996.12.19.,15,2021-05-14_14h52.45.524,ranlexdec,2020.2.5,Win32,60
,,,,,,,,,,,,left,0.952315,0,60,60,50,1,csenyei,KT238,nő,1996.12.19.,15,2021-05-14_14h52.45.524,ranlexdec,2020.2.5,Win32,60
,,,,,,,,,,,,right,1.26345,0,61,61,32,1,genom,KT238,nő,1996.12.19.,15,2021-05-14_14h52.45.524,ranlexdec,2020.2.5,Win32,60
,,,,,,,,,,,,left,0.91866,0,62,62,36,1,tröshet,KT238,nő,1996.12.19.,15,2021-05-14_14h52.45.524,ranlexdec,2020.2.5,Win32,60
,,,,,,,,,,,,right,1.073035,0,63,63,46,1,kurzív,KT238,nő,1996.12.19.,15,2021-05-14_14h52.45.524,ranlexdec,2020.2.5,Win32,60
,,,,,,,,,,,,right,1.43446,0,64,64,10,1,nárcisz,KT238,nő,1996.12.19.,15,2021-05-14_14h52.45.524,ranlexdec,2020.2.5,Win32,60
,,,,,,,,,,,,right,2.038735,0,65,65,61,1,régész,KT238,nő,1996.12.19.,15,2021-05-14_14h52.45.524,ranlexdec,2020.2.5,Win32,60
,,,,,,,,,,,,left,0.72464,0,66,66,5,1,retta,KT238,nő,1996.12.19.,15,2021-05-14_14h52.45.524,ranlexdec,2020.2.5,Win32,60
,,,,,,,,,,,,right,0.74557,0,67,67,177,1,pereg,KT238,nő,1996.12.19.,15,2021-05-14_14h52.45.524,ranlexdec,2020.2.5,Win32,60
,,,,,,,,,,,,right,1.302695,0,68,68,44,1,ingváll,KT238,nő,1996.12.19.,15,2021-05-14_14h52.45.524,ranlexdec,2020.2.5,Win32,60
,,,,,,,,,,,,right,0.885095,0,69,69,174,1,cianid,KT238,nő,1996.12.19.,15,2021-05-14_14h52.45.524,ranlexdec,2020.2.5,Win32,60
,,,,,,,,,,,,right,0.752735,0,70,70,247,1,ausztrál,KT238,nő,1996.12.19.,15,2021-05-14_14h52.45.524,ranlexdec,2020.2.5,Win32,60
,,,,,,,,,,,,right,0.74929,0,71,71,54,1,fürkész,KT238,nő,1996.12.19.,15,2021-05-14_14h52.45.524,ranlexdec,2020.2.5,Win32,60
,,,,,,,,,,,,right,0.568655,0,72,72,28,1,gazdag,KT238,nő,1996.12.19.,15,2021-05-14_14h52.45.524,ranlexdec,2020.2.5,Win32,60
,,,,,,,,,,,,right,0.670025,0,73,73,228,1,tarol,KT238,nő,1996.12.19.,15,2021-05-14_14h52.45.524,ranlexdec,2020.2.5,Win32,60
,,,,,,,,,,,,right,0.685275,0,74,74,160,1,százalék,KT238,nő,1996.12.19.,15,2021-05-14_14h52.45.524,ranlexdec,2020.2.5,Win32,60
,,,,,,,,,,,,left,0.97402,0,75,75,91,1,tajtásos,KT238,nő,1996.12.19.,15,2021-05-14_14h52.45.524,ranlexdec,2020.2.5,Win32,60
,,,,,,,,,,,,left,1.208065,0,76,76,40,1,diviz,KT238,nő,1996.12.19.,15,2021-05-14_14h52.45.524,ranlexdec,2020.2.5,Win32,60
,,,,,,,,,,,,left,2.11894,0,77,77,180,1,adszorbens,KT238,nő,1996.12.19.,15,2021-05-14_14h52.45.524,ranlexdec,2020.2.5,Win32,60
,,,,,,,,,,,,right,1.0438,0,78,78,90,1,orális,KT238,nő,1996.12.19.,15,2021-05-14_14h52.45.524,ranlexdec,2020.2.5,Win32,60
,,,,,,,,,,,,right,0.90355,0,79,79,56,1,kanalaz,KT238,nő,1996.12.19.,15,2021-05-14_14h52.45.524,ranlexdec,2020.2.5,Win32,60
,,,,,,,,,,,,left,1.26315,0,80,80,242,1,rekvizit,KT238,nő,1996.12.19.,15,2021-05-14_14h52.45.524,ranlexdec,2020.2.5,Win32,60
,,,,,,,,,,,,right,1.11985,0,81,81,126,1,rejtőzik,KT238,nő,1996.12.19.,15,2021-05-14_14h52.45.524,ranlexdec,2020.2.5,Win32,60
,,,,,,,,,,,,right,0.96748,0,82,82,234,1,fertilis,KT238,nő,1996.12.19.,15,2021-05-14_14h52.45.524,ranlexdec,2020.2.5,Win32,60
,,,,,,,,,,,,right,0.782845,0,83,83,184,1,profit,KT238,nő,1996.12.19.,15,2021-05-14_14h52.45.524,ranlexdec,2020.2.5,Win32,60
,,,,,,,,,,,,left,1.430335,0,84,84,112,1,méhezter,KT238,nő,1996.12.19.,15,2021-05-14_14h52.45.524,ranlexdec,2020.2.5,Win32,60
,,,,,,,,,,,,left,1.013995,0,85,85,125,1,úszamos,KT238,nő,1996.12.19.,15,2021-05-14_14h52.45.524,ranlexdec,2020.2.5,Win32,60
,,,,,,,,,,,,left,1.089585,0,86,86,97,1,vésségi,KT238,nő,1996.12.19.,15,2021-05-14_14h52.45.524,ranlexdec,2020.2.5,Win32,60
,,,,,,,,,,,,left,0.866185,0,87,87,106,1,lalláz,KT238,nő,1996.12.19.,15,2021-05-14_14h52.45.524,ranlexdec,2020.2.5,Win32,60
,,,,,,,,,,,,left,1.070445,0,88,88,118,1,libling,KT238,nő,1996.12.19.,15,2021-05-14_14h52.45.524,ranlexdec,2020.2.5,Win32,60
,,,,,,,,,,,,right,0.77258,0,89,89,11,1,viszkóz,KT238,nő,1996.12.19.,15,2021-05-14_14h52.45.524,ranlexdec,2020.2.5,Win32,60
,,,,,,,,,,,,right,0.708985,0,90,90,98,1,mítosz,KT238,nő,1996.12.19.,15,2021-05-14_14h52.45.524,ranlexdec,2020.2.5,Win32,60
,,,,,,,,,,,,left,1.03689,0,91,91,217,1,ifjít,KT238,nő,1996.12.19.,15,2021-05-14_14h52.45.524,ranlexdec,2020.2.5,Win32,60
,,,,,,,,,,,,right,0.682995,0,92,92,140,1,diktátor,KT238,nő,1996.12.19.,15,2021-05-14_14h52.45.524,ranlexdec,2020.2.5,Win32,60
,,,,,,,,,,,,right,1.01841,0,93,93,133,1,hübrisz,KT238,nő,1996.12.19.,15,2021-05-14_14h52.45.524,ranlexdec,2020.2.5,Win32,60
,,,,,,,,,,,,left,1.08258,0,94,94,164,1,kurzivál,KT238,nő,1996.12.19.,15,2021-05-14_14h52.45.524,ranlexdec,2020.2.5,Win32,60
,,,,,,,,,,,,right,0.7035,0,95,95,41,1,nagybeteg,KT238,nő,1996.12.19.,15,2021-05-14_14h52.45.524,ranlexdec,2020.2.5,Win32,60
,,,,,,,,,,,,right,0.80728,0,96,96,135,1,ion,KT238,nő,1996.12.19.,15,2021-05-14_14h52.45.524,ranlexdec,2020.2.5,Win32,60
,,,,,,,,,,,,right,0.80951,0,97,97,12,1,gyapot,KT238,nő,1996.12.19.,15,2021-05-14_14h52.45.524,ranlexdec,2020.2.5,Win32,60
,,,,,,,,,,,,right,1.01745,0,98,98,171,1,újgazdag,KT238,nő,1996.12.19.,15,2021-05-14_14h52.45.524,ranlexdec,2020.2.5,Win32,60
,,,,,,,,,,,,right,2.181405,0,99,99,120,1,komál,KT238,nő,1996.12.19.,15,2021-05-14_14h52.45.524,ranlexdec,2020.2.5,Win32,60
,,,,,,,,,,,,right,0.979245,0,100,100,210,1,karakter,KT238,nő,1996.12.19.,15,2021-05-14_14h52.45.524,ranlexdec,2020.2.5,Win32,60
,,,,,,,,,,,,right,1.02073,0,101,101,92,1,lágyék,KT238,nő,1996.12.19.,15,2021-05-14_14h52.45.524,ranlexdec,2020.2.5,Win32,60
,,,,,,,,,,,,left,0.84937,0,102,102,38,1,zomogyi,KT238,nő,1996.12.19.,15,2021-05-14_14h52.45.524,ranlexdec,2020.2.5,Win32,60
,,,,,,,,,,,,right,0.5655,0,103,103,73,1,olaj,KT238,nő,1996.12.19.,15,2021-05-14_14h52.45.524,ranlexdec,2020.2.5,Win32,60
,,,,,,,,,,,,right,0.734655,0,104,104,8,1,kulcscsont,KT238,nő,1996.12.19.,15,2021-05-14_14h52.45.524,ranlexdec,2020.2.5,Win32,60
,,,,,,,,,,,,left,2.483665,0,105,105,182,1,nagyszámú,KT238,nő,1996.12.19.,15,2021-05-14_14h52.45.524,ranlexdec,2020.2.5,Win32,60
,,,,,,,,,,,,right,0.94951,0,106,106,13,1,törköly,KT238,nő,1996.12.19.,15,2021-05-14_14h52.45.524,ranlexdec,2020.2.5,Win32,60
,,,,,,,,,,,,right,1.306825,0,107,107,79,1,extrém,KT238,nő,1996.12.19.,15,2021-05-14_14h52.45.524,ranlexdec,2020.2.5,Win32,60
,,,,,,,,,,,,right,3.168895,0,108,108,31,1,iszlám,KT238,nő,1996.12.19.,15,2021-05-14_14h52.45.524,ranlexdec,2020.2.5,Win32,60
,,,,,,,,,,,,right,0.848315,0,109,109,238,1,bolgár,KT238,nő,1996.12.19.,15,2021-05-14_14h52.45.524,ranlexdec,2020.2.5,Win32,60
,,,,,,,,,,,,right,0.83912,0,110,110,241,1,kárpit,KT238,nő,1996.12.19.,15,2021-05-14_14h52.45.524,ranlexdec,2020.2.5,Win32,60
,,,,,,,,,,,,right,1.05497,0,111,111,178,1,sziszeg,KT238,nő,1996.12.19.,15,2021-05-14_14h52.45.524,ranlexdec,2020.2.5,Win32,60
,,,,,,,,,,,,left,1.08428,0,112,112,229,1,lemesség,KT238,nő,1996.12.19.,15,2021-05-14_14h52.45.524,ranlexdec,2020.2.5,Win32,60
,,,,,,,,,,,,left,1.171315,0,113,113,63,1,viszkózus,KT238,nő,1996.12.19.,15,2021-05-14_14h52.45.524,ranlexdec,2020.2.5,Win32,60
,,,,,,,,,,,,right,1.46575,0,114,114,100,1,balközép,KT238,nő,1996.12.19.,15,2021-05-14_14h52.45.524,ranlexdec,2020.2.5,Win32,60
,,,,,,,,,,,,left,1.29776,0,115,115,181,1,dohorpák,KT238,nő,1996.12.19.,15,2021-05-14_14h52.45.524,ranlexdec,2020.2.5,Win32,60
,,,,,,,,,,,,right,0.682385,0,116,116,245,1,ellenfél,KT238,nő,1996.12.19.,15,2021-05-14_14h52.45.524,ranlexdec,2020.2.5,Win32,60
,,,,,,,,,,,,left,1.11812,0,117,117,121,1,aggófű,KT238,nő,1996.12.19.,15,2021-05-14_14h52.45.524,ranlexdec,2020.2.5,Win32,60
,,,,,,,,,,,,left,1.44901,0,118,118,131,1,vetézmés,KT238,nő,1996.12.19.,15,2021-05-14_14h52.45.524,ranlexdec,2020.2.5,Win32,60
,,,,,,,,,,,,right,1.35516,0,119,119,37,1,lukaszt,KT238,nő,1996.12.19.,15,2021-05-14_14h52.45.524,ranlexdec,2020.2.5,Win32,60
,,,,,,,,,,,,right,1.052775,0,120,120,15,1,pauzál,KT238,nő,1996.12.19.,15,2021-05-14_14h52.45.524,ranlexdec,2020.2.5,Win32,60
,,,,,,,,,,,,right,0.739645,0,121,121,122,1,égitest,KT238,nő,1996.12.19.,15,2021-05-14_14h52.45.524,ranlexdec,2020.2.5,Win32,60
,,,,,,,,,,,,left,0.881545,0,122,122,107,1,kelől,KT238,nő,1996.12.19.,15,2021-05-14_14h52.45.524,ranlexdec,2020.2.5,Win32,60
,,,,,,,,,,,,left,0.968365,0,123,123,83,1,vonzum,KT238,nő,1996.12.19.,15,2021-05-14_14h52.45.524,ranlexdec,2020.2.5,Win32,60
,,,,,,,,,,,,left,1.26582,0,124,124,237,1,forgórész,KT238,nő,1996.12.19.,15,2021-05-14_14h52.45.524,ranlexdec,2020.2.5,Win32,60
,,,,,,,,,,,,left,0.999715,0,125,125,150,1,orront,KT238,nő,1996.12.19.,15,2021-05-14_14h52.45.524,ranlexdec,2020.2.5,Win32,60
,,,,,,,,,,,,left,0.6806,0,126,126,119,1,cugehőr,KT238,nő,1996.12.19.,15,2021-05-14_14h52.45.524,ranlexdec,2020.2.5,Win32,60
,,,,,,,,,,,,left,0.637175,0,127,127,203,1,abeti,KT238,nő,1996.12.19.,15,2021-05-14_14h52.45.524,ranlexdec,2020.2.5,Win32,60
,,,,,,,,,,,,left,0.620275,0,128,128,137,1,aragas,KT238,nő,1996.12.19.,15,2021-05-14_14h52.45.524,ranlexdec,2020.2.5,Win32,60
,,,,,,,,,,,,right,0.79191,0,129,129,230,1,délceg,KT238,nő,1996.12.19.,15,2021-05-14_14h52.45.524,ranlexdec,2020.2.5,Win32,60
,,,,,,,,,,,,right,1.16951,0,130,130,201,1,szempont,KT238,nő,1996.12.19.,15,2021-05-14_14h52.45.524,ranlexdec,2020.2.5,Win32,60
,,,,,,,,,,,,left,0.92309,0,131,131,3,1,tömzsa,KT238,nő,1996.12.19.,15,2021-05-14_14h52.45.524,ranlexdec,2020.2.5,Win32,60
,,,,,,,,,,,,left,0.853795,0,132,132,166,1,retálhit,KT238,nő,1996.12.19.,15,2021-05-14_14h52.45.524,ranlexdec,2020.2.5,Win32,60
,,,,,,,,,,,,right,0.763185,0,133,133,88,1,pohár,KT238,nő,1996.12.19.,15,2021-05-14_14h52.45.524,ranlexdec,2020.2.5,Win32,60
,,,,,,,,,,,,right,1.315195,0,134,134,99,1,sárgaréz,KT238,nő,1996.12.19.,15,2021-05-14_14h52.45.524,ranlexdec,2020.2.5,Win32,60
,,,,,,,,,,,,left,0.96565,0,135,135,134,1,móringol,KT238,nő,1996.12.19.,15,2021-05-14_14h52.45.524,ranlexdec,2020.2.5,Win32,60
,,,,,,,,,,,,right,0.817645,0,136,136,206,1,horizont,KT238,nő,1996.12.19.,15,2021-05-14_14h52.45.524,ranlexdec,2020.2.5,Win32,60
,,,,,,,,,,,,right,2.488195,0,137,137,222,1,nyersarany,KT238,nő,1996.12.19.,15,2021-05-14_14h52.45.524,ranlexdec,2020.2.5,Win32,60
,,,,,,,,,,,,right,0.74901,0,138,138,58,1,barát,KT238,nő,1996.12.19.,15,2021-05-14_14h52.45.524,ranlexdec,2020.2.5,Win32,60
,,,,,,,,,,,,left,1.008715,0,139,139,141,1,hider,KT238,nő,1996.12.19.,15,2021-05-14_14h52.45.524,ranlexdec,2020.2.5,Win32,60
,,,,,,,,,,,,right,0.81541,0,140,140,169,1,komoly,KT238,nő,1996.12.19.,15,2021-05-14_14h52.45.524,ranlexdec,2020.2.5,Win32,60
,,,,,,,,,,,,right,0.867805,0,141,141,138,1,gyűjtemény,KT238,nő,1996.12.19.,15,2021-05-14_14h52.45.524,ranlexdec,2020.2.5,Win32,60
,,,,,,,,,,,,right,0.83417,0,142,142,144,1,rövid,KT238,nő,1996.12.19.,15,2021-05-14_14h52.45.524,ranlexdec,2020.2.5,Win32,60
,,,,,,,,,,,,left,0.89775,0,143,143,216,1,svábtök,KT238,nő,1996.12.19.,15,2021-05-14_14h52.45.524,ranlexdec,2020.2.5,Win32,60
,,,,,,,,,,,,right,3.158695,0,144,144,165,1,lépték,KT238,nő,1996.12.19.,15,2021-05-14_14h52.45.524,ranlexdec,2020.2.5,Win32,60
,,,,,,,,,,,,right,1.5034,0,145,145,67,1,szegény,KT238,nő,1996.12.19.,15,2021-05-14_14h52.45.524,ranlexdec,2020.2.5,Win32,60
,,,,,,,,,,,,right,1.138485,0,146,146,146,1,kondenzcsík,KT238,nő,1996.12.19.,15,2021-05-14_14h52.45.524,ranlexdec,2020.2.5,Win32,60
,,,,,,,,,,,,left,2.53548,0,147,147,103,1,szabotró,KT238,nő,1996.12.19.,15,2021-05-14_14h52.45.524,ranlexdec,2020.2.5,Win32,60
,,,,,,,,,,,,left,3.752425,0,148,148,66,1,parkkói,KT238,nő,1996.12.19.,15,2021-05-14_14h52.45.524,ranlexdec,2020.2.5,Win32,60
,,,,,,,,,,,,left,0.75067,0,149,149,29,1,novagár,KT238,nő,1996.12.19.,15,2021-05-14_14h52.45.524,ranlexdec,2020.2.5,Win32,60
,,,,,,,,,,,,left,0.940715,0,150,150,71,1,extuál,KT238,nő,1996.12.19.,15,2021-05-14_14h52.45.524,ranlexdec,2020.2.5,Win32,60
,,,,,,,,,,,,left,1.20073,0,151,151,243,1,dipeptid,KT238,nő,1996.12.19.,15,2021-05-14_14h52.45.524,ranlexdec,2020.2.5,Win32,60
,,,,,,,,,,,,left,0.86214,0,152,152,142,1,storítő,KT238,nő,1996.12.19.,15,2021-05-14_14h52.45.524,ranlexdec,2020.2.5,Win32,60
,,,,,,,,,,,,right,3.288985,0,153,153,123,1,luftballon,KT238,nő,1996.12.19.,15,2021-05-14_14h52.45.524,ranlexdec,2020.2.5,Win32,60
,,,,,,,,,,,,right,1.197815,0,154,154,239,1,donhuán,KT238,nő,1996.12.19.,15,2021-05-14_14h52.45.524,ranlexdec,2020.2.5,Win32,60
,,,,,,,,,,,,left,1.75053,0,155,155,108,1,konyrúd,KT238,nő,1996.12.19.,15,2021-05-14_14h52.45.524,ranlexdec,2020.2.5,Win32,60
,,,,,,,,,,,,left,1.66672,0,156,156,198,1,lublika,KT238,nő,1996.12.19.,15,2021-05-14_14h52.45.524,ranlexdec,2020.2.5,Win32,60
,,,,,,,,,,,,right,2.141465,0,157,157,39,1,könnyelmű,KT238,nő,1996.12.19.,15,2021-05-14_14h52.45.524,ranlexdec,2020.2.5,Win32,60
,,,,,,,,,,,,left,1.833895,0,158,158,233,1,templomoz,KT238,nő,1996.12.19.,15,2021-05-14_14h52.45.524,ranlexdec,2020.2.5,Win32,60
,,,,,,,,,,,,right,0.84756,0,159,159,221,1,törődik,KT238,nő,1996.12.19.,15,2021-05-14_14h52.45.524,ranlexdec,2020.2.5,Win32,60
,,,,,,,,,,,,right,3.32825,0,160,160,95,1,skubizik,KT238,nő,1996.12.19.,15,2021-05-14_14h52.45.524,ranlexdec,2020.2.5,Win32,60
,,,,,,,,,,,,right,0.872495,0,161,161,149,1,anorák,KT238,nő,1996.12.19.,15,2021-05-14_14h52.45.524,ranlexdec,2020.2.5,Win32,60
,,,,,,,,,,,,right,0.683165,0,162,162,161,1,példakép,KT238,nő,1996.12.19.,15,2021-05-14_14h52.45.524,ranlexdec,2020.2.5,Win32,60
,,,,,,,,,,,,left,1.101465,0,163,163,65,1,infimum,KT238,nő,1996.12.19.,15,2021-05-14_14h52.45.524,ranlexdec,2020.2.5,Win32,60
,,,,,,,,,,,,left,2.25064,0,164,164,17,1,magmatit,KT238,nő,1996.12.19.,15,2021-05-14_14h52.45.524,ranlexdec,2020.2.5,Win32,60
,,,,,,,,,,,,right,1.05638,0,165,165,215,1,neoprén,KT238,nő,1996.12.19.,15,2021-05-14_14h52.45.524,ranlexdec,2020.2.5,Win32,60
,,,,,,,,,,,,left,1.40029,0,166,166,127,1,rozintem,KT238,nő,1996.12.19.,15,2021-05-14_14h52.45.524,ranlexdec,2020.2.5,Win32,60
,,,,,,,,,,,,right,3.084005,0,167,167,30,1,dádá,KT238,nő,1996.12.19.,15,2021-05-14_14h52.45.524,ranlexdec,2020.2.5,Win32,60
,,,,,,,,,,,,left,1.04936,0,168,168,18,1,csapattest,KT238,nő,1996.12.19.,15,2021-05-14_14h52.45.524,ranlexdec,2020.2.5,Win32,60
,,,,,,,,,,,,left,0.93953,0,169,169,1,1,csapdáz,KT238,nő,1996.12.19.,15,2021-05-14_14h52.45.524,ranlexdec,2020.2.5,Win32,60
,,,,,,,,,,,,right,0.749075,0,170,170,130,1,derít,KT238,nő,1996.12.19.,15,2021-05-14_14h52.45.524,ranlexdec,2020.2.5,Win32,60
,,,,,,,,,,,,right,0.722125,0,171,171,48,1,reagál,KT238,nő,1996.12.19.,15,2021-05-14_14h52.45.524,ranlexdec,2020.2.5,Win32,60
,,,,,,,,,,,,right,0.78125,0,172,172,114,1,tartalom,KT238,nő,1996.12.19.,15,2021-05-14_14h52.45.524,ranlexdec,2020.2.5,Win32,60
,,,,,,,,,,,,left,0.996675,0,173,173,76,1,jegedény,KT238,nő,1996.12.19.,15,2021-05-14_14h52.45.524,ranlexdec,2020.2.5,Win32,60
,,,,,,,,,,,,left,1.87503,0,174,174,173,1,glosszáz,KT238,nő,1996.12.19.,15,2021-05-14_14h52.45.524,ranlexdec,2020.2.5,Win32,60
,,,,,,,,,,,,left,1.18429,0,175,175,87,1,forrpont,KT238,nő,1996.12.19.,15,2021-05-14_14h52.45.524,ranlexdec,2020.2.5,Win32,60
,,,,,,,,,,,,right,1.014825,0,176,176,185,1,gyülemlik,KT238,nő,1996.12.19.,15,2021-05-14_14h52.45.524,ranlexdec,2020.2.5,Win32,60
,,,,,,,,,,,,right,0.801765,0,177,177,159,1,elegy,KT238,nő,1996.12.19.,15,2021-05-14_14h52.45.524,ranlexdec,2020.2.5,Win32,60
,,,,,,,,,,,,right,3.38512,0,178,178,34,1,csengettyű,KT238,nő,1996.12.19.,15,2021-05-14_14h52.45.524,ranlexdec,2020.2.5,Win32,60
,,,,,,,,,,,,left,0.851,0,179,179,205,1,mimézis,KT238,nő,1996.12.19.,15,2021-05-14_14h52.45.524,ranlexdec,2020.2.5,Win32,60
,,,,,,,,,,,,right,0.610925,0,180,180,154,1,keresztény,KT238,nő,1996.12.19.,15,2021-05-14_14h52.45.524,ranlexdec,2020.2.5,Win32,60
,,,,,,,,,,,,left,1.30518,0,181,181,69,1,gerencsér,KT238,nő,1996.12.19.,15,2021-05-14_14h52.45.524,ranlexdec,2020.2.5,Win32,60
,,,,,,,,,,,,right,0.786605,0,182,182,19,1,tangózik,KT238,nő,1996.12.19.,15,2021-05-14_14h52.45.524,ranlexdec,2020.2.5,Win32,60
,,,,,,,,,,,,right,0.80742,0,183,183,190,1,rámáz,KT238,nő,1996.12.19.,15,2021-05-14_14h52.45.524,ranlexdec,2020.2.5,Win32,60
,,,,,,,,,,,,left,0.759015,0,184,184,192,1,norvend,KT238,nő,1996.12.19.,15,2021-05-14_14h52.45.524,ranlexdec,2020.2.5,Win32,60
,,,,,,,,,,,,right,0.91886,0,185,185,235,1,transzplantál,KT238,nő,1996.12.19.,15,2021-05-14_14h52.45.524,ranlexdec,2020.2.5,Win32,60
,,,,,,,,,,,,right,0.73494,0,186,186,9,1,hajlik,KT238,nő,1996.12.19.,15,2021-05-14_14h52.45.524,ranlexdec,2020.2.5,Win32,60
,,,,,,,,,,,,right,0.83797,0,187,187,132,1,hatalom,KT238,nő,1996.12.19.,15,2021-05-14_14h52.45.524,ranlexdec,2020.2.5,Win32,60
,,,,,,,,,,,,right,2.086015,0,188,188,27,1,sporthorgász,KT238,nő,1996.12.19.,15,2021-05-14_14h52.45.524,ranlexdec,2020.2.5,Win32,60
,,,,,,,,,,,,left,0.88724,0,189,189,77,1,egant,KT238,nő,1996.12.19.,15,2021-05-14_14h52.45.524,ranlexdec,2020.2.5,Win32,60
,,,,,,,,,,,,right,0.70832,0,190,190,151,1,komplex,KT238,nő,1996.12.19.,15,2021-05-14_14h52.45.524,ranlexdec,2020.2.5,Win32,60
,,,,,,,,,,,,left,1.51619,0,191,191,212,1,farkasbab,KT238,nő,1996.12.19.,15,2021-05-14_14h52.45.524,ranlexdec,2020.2.5,Win32,60
,,,,,,,,,,,,left,4.353255,0,192,192,89,1,szokik,KT238,nő,1996.12.19.,15,2021-05-14_14h52.45.524,ranlexdec,2020.2.5,Win32,60
,,,,,,,,,,,,right,0.72571,0,193,193,213,1,eszköz,KT238,nő,1996.12.19.,15,2021-05-14_14h52.45.524,ranlexdec,2020.2.5,Win32,60
,,,,,,,,,,,,right,0.93228,0,194,194,59,1,ómagyar,KT238,nő,1996.12.19.,15,2021-05-14_14h52.45.524,ranlexdec,2020.2.5,Win32,60
,,,,,,,,,,,,left,1.005765,0,195,195,96,1,alfél,KT238,nő,1996.12.19.,15,2021-05-14_14h52.45.524,ranlexdec,2020.2.5,Win32,60
,,,,,,,,,,,,left,1.8157,0,196,196,72,1,mihálóz,KT238,nő,1996.12.19.,15,2021-05-14_14h52.45.524,ranlexdec,2020.2.5,Win32,60
,,,,,,,,,,,,left,1.390645,0,197,197,109,1,vényegő,KT238,nő,1996.12.19.,15,2021-05-14_14h52.45.524,ranlexdec,2020.2.5,Win32,60
,,,,,,,,,,,,left,1.18682,0,198,198,70,1,lakotthely,KT238,nő,1996.12.19.,15,2021-05-14_14h52.45.524,ranlexdec,2020.2.5,Win32,60
,,,,,,,,,,,,left,1.528445,0,199,199,158,1,hidroxid,KT238,nő,1996.12.19.,15,2021-05-14_14h52.45.524,ranlexdec,2020.2.5,Win32,60
,,,,,,,,,,,,left,0.99527,0,200,200,191,1,hitódó,KT238,nő,1996.12.19.,15,2021-05-14_14h52.45.524,ranlexdec,2020.2.5,Win32,60
,,,,,,,,,,,,right,0.735045,0,201,201,55,1,látszik,KT238,nő,1996.12.19.,15,2021-05-14_14h52.45.524,ranlexdec,2020.2.5,Win32,60
,,,,,,,,,,,,right,0.60959,0,202,202,20,1,század,KT238,nő,1996.12.19.,15,2021-05-14_14h52.45.524,ranlexdec,2020.2.5,Win32,60
,,,,,,,,,,,,right,0.572905,0,203,203,246,1,beton,KT238,nő,1996.12.19.,15,2021-05-14_14h52.45.524,ranlexdec,2020.2.5,Win32,60
,,,,,,,,,,,,right,0.629195,0,204,204,176,1,bélyeg,KT238,nő,1996.12.19.,15,2021-05-14_14h52.45.524,ranlexdec,2020.2.5,Win32,60
,,,,,,,,,,,,right,0.693215,0,205,205,14,1,selypít,KT238,nő,1996.12.19.,15,2021-05-14_14h52.45.524,ranlexdec,2020.2.5,Win32,60
,,,,,,,,,,,,right,0.611745,0,206,206,110,1,időszak,KT238,nő,1996.12.19.,15,2021-05-14_14h52.45.524,ranlexdec,2020.2.5,Win32,60
,,,,,,,,,,,,right,0.73628,0,207,207,85,1,glükóz,KT238,nő,1996.12.19.,15,2021-05-14_14h52.45.524,ranlexdec,2020.2.5,Win32,60
,,,,,,,,,,,,right,0.76899,0,208,208,62,1,bizmut,KT238,nő,1996.12.19.,15,2021-05-14_14h52.45.524,ranlexdec,2020.2.5,Win32,60
,,,,,,,,,,,,left,1.162005,0,209,209,220,1,csontdarab,KT238,nő,1996.12.19.,15,2021-05-14_14h52.45.524,ranlexdec,2020.2.5,Win32,60
,,,,,,,,,,,,right,1.37069,0,210,210,116,1,árus,KT238,nő,1996.12.19.,15,2021-05-14_14h52.45.524,ranlexdec,2020.2.5,Win32,60
,,,,,,,,,,,,right,0.63709,0,211,211,211,1,tábornagy,KT238,nő,1996.12.19.,15,2021-05-14_14h52.45.524,ranlexdec,2020.2.5,Win32,60
,,,,,,,,,,,,left,1.158335,0,212,212,75,1,karnogó,KT238,nő,1996.12.19.,15,2021-05-14_14h52.45.524,ranlexdec,2020.2.5,Win32,60
,,,,,,,,,,,,right,2.037965,0,213,213,143,1,rojtoz,KT238,nő,1996.12.19.,15,2021-05-14_14h52.45.524,ranlexdec,2020.2.5,Win32,60
,,,,,,,,,,,,right,0.655765,0,214,214,227,1,kötődik,KT238,nő,1996.12.19.,15,2021-05-14_14h52.45.524,ranlexdec,2020.2.5,Win32,60
,,,,,,,,,,,,left,1.01952,0,215,215,128,1,csüggedez,KT238,nő,1996.12.19.,15,2021-05-14_14h52.45.524,ranlexdec,2020.2.5,Win32,60
,,,,,,,,,,,,right,0.801655,0,216,216,202,1,abszint,KT238,nő,1996.12.19.,15,2021-05-14_14h52.45.524,ranlexdec,2020.2.5,Win32,60
,,,,,,,,,,,,left,1.48601,0,217,217,163,1,kollapszus,KT238,nő,1996.12.19.,15,2021-05-14_14h52.45.524,ranlexdec,2020.2.5,Win32,60
,,,,,,,,,,,,left,0.995845,0,218,218,111,1,koenzim,KT238,nő,1996.12.19.,15,2021-05-14_14h52.45.524,ranlexdec,2020.2.5,Win32,60
,,,,,,,,,,,,right,0.851195,0,219,219,189,1,konverzál,KT238,nő,1996.12.19.,15,2021-05-14_14h52.45.524,ranlexdec,2020.2.5,Win32,60
,,,,,,,,,,,,left,0.905985,0,220,220,4,1,viszonvád,KT238,nő,1996.12.19.,15,2021-05-14_14h52.45.524,ranlexdec,2020.2.5,Win32,60
,,,,,,,,,,,,left,1.28035,0,221,221,155,1,megpadék,KT238,nő,1996.12.19.,15,2021-05-14_14h52.45.524,ranlexdec,2020.2.5,Win32,60
,,,,,,,,,,,,right,0.7327,0,222,222,64,1,hálózsák,KT238,nő,1996.12.19.,15,2021-05-14_14h52.45.524,ranlexdec,2020.2.5,Win32,60
,,,,,,,,,,,,right,1.33655,0,223,223,33,1,kalcium,KT238,nő,1996.12.19.,15,2021-05-14_14h52.45.524,ranlexdec,2020.2.5,Win32,60
,,,,,,,,,,,,left,1.172015,0,224,224,172,1,kettősfém,KT238,nő,1996.12.19.,15,2021-05-14_14h52.45.524,ranlexdec,2020.2.5,Win32,60
,,,,,,,,,,,,left,3.30123,0,225,225,167,1,vabank,KT238,nő,1996.12.19.,15,2021-05-14_14h52.45.524,ranlexdec,2020.2.5,Win32,60
,,,,,,,,,,,,right,0.553365,0,226,226,214,1,tenger,KT238,nő,1996.12.19.,15,2021-05-14_14h52.45.524,ranlexdec,2020.2.5,Win32,60
,,,,,,,,,,,,right,0.71151,0,227,227,22,1,arzénsav,KT238,nő,1996.12.19.,15,2021-05-14_14h52.45.524,ranlexdec,2020.2.5,Win32,60
,,,,,,,,,,,,right,4.28758,0,228,228,175,1,szilikát,KT238,nő,1996.12.19.,15,2021-05-14_14h52.45.524,ranlexdec,2020.2.5,Win32,60
,,,,,,,,,,,,left,1.01695,0,229,229,2,1,gyásos,KT238,nő,1996.12.19.,15,2021-05-14_14h52.45.524,ranlexdec,2020.2.5,Win32,60
,,,,,,,,,,,,right,0.741215,0,230,230,0,1,irány,KT238,nő,1996.12.19.,15,2021-05-14_14h52.45.524,ranlexdec,2020.2.5,Win32,60
,,,,,,,,,,,,right,0.713725,0,231,231,248,1,örmény,KT238,nő,1996.12.19.,15,2021-05-14_14h52.45.524,ranlexdec,2020.2.5,Win32,60
,,,,,,,,,,,,left,3.2782,0,232,232,207,1,diffamál,KT238,nő,1996.12.19.,15,2021-05-14_14h52.45.524,ranlexdec,2020.2.5,Win32,60
,,,,,,,,,,,,left,2.39867,0,233,233,115,1,fajansz,KT238,nő,1996.12.19.,15,2021-05-14_14h52.45.524,ranlexdec,2020.2.5,Win32,60
,,,,,,,,,,,,right,0.64184,0,234,234,168,1,grafikon,KT238,nő,1996.12.19.,15,2021-05-14_14h52.45.524,ranlexdec,2020.2.5,Win32,60
,,,,,,,,,,,,right,0.81719,0,235,235,226,1,szalicil,KT238,nő,1996.12.19.,15,2021-05-14_14h52.45.524,ranlexdec,2020.2.5,Win32,60
,,,,,,,,,,,,right,1.074965,0,236,236,244,1,kislány,KT238,nő,1996.12.19.,15,2021-05-14_14h52.45.524,ranlexdec,2020.2.5,Win32,60
,,,,,,,,,,,,left,1.96805,0,237,237,81,1,takorák,KT238,nő,1996.12.19.,15,2021-05-14_14h52.45.524,ranlexdec,2020.2.5,Win32,60
,,,,,,,,,,,,right,0.732425,0,238,238,80,1,darab,KT238,nő,1996.12.19.,15,2021-05-14_14h52.45.524,ranlexdec,2020.2.5,Win32,60
,,,,,,,,,,,,right,1.701615,0,239,239,57,1,lejmol,KT238,nő,1996.12.19.,15,2021-05-14_14h52.45.524,ranlexdec,2020.2.5,Win32,60
,,,,,,,,,,,,right,2.507035,0,240,240,53,1,puritán,KT238,nő,1996.12.19.,15,2021-05-14_14h52.45.524,ranlexdec,2020.2.5,Win32,60
,,,,,,,,,,,,right,0.78945,0,241,241,208,1,lélek,KT238,nő,1996.12.19.,15,2021-05-14_14h52.45.524,ranlexdec,2020.2.5,Win32,60
,,,,,,,,,,,,right,0.671785,0,242,242,196,1,dolgozik,KT238,nő,1996.12.19.,15,2021-05-14_14h52.45.524,ranlexdec,2020.2.5,Win32,60
,,,,,,,,,,,,left,0.806955,0,243,243,24,1,kosi,KT238,nő,1996.12.19.,15,2021-05-14_14h52.45.524,ranlexdec,2020.2.5,Win32,60
,,,,,,,,,,,,left,1.23433,0,244,244,23,1,szelégül,KT238,nő,1996.12.19.,15,2021-05-14_14h52.45.524,ranlexdec,2020.2.5,Win32,60
,,,,,,,,,,,,left,0.8164,0,245,245,84,1,kúpol,KT238,nő,1996.12.19.,15,2021-05-14_14h52.45.524,ranlexdec,2020.2.5,Win32,60
,,,,,,,,,,,,left,1.59277,0,246,246,162,1,nimbus,KT238,nő,1996.12.19.,15,2021-05-14_14h52.45.524,ranlexdec,2020.2.5,Win32,60
,,,,,,,,,,,,left,1.43514,0,247,247,232,1,tropikus,KT238,nő,1996.12.19.,15,2021-05-14_14h52.45.524,ranlexdec,2020.2.5,Win32,60
,,,,,,,,,,,,right,1.22749,0,248,248,101,1,nukleon,KT238,nő,1996.12.19.,15,2021-05-14_14h52.45.524,ranlexdec,2020.2.5,Win32,60
,,,,,,,,,,,,left,0.902555,0,249,249,49,1,ernyak,KT238,nő,1996.12.19.,15,2021-05-14_14h52.45.524,ranlexdec,2020.2.5,Win32,60
