ready2_2.keys,ready2_2.rt,ready2.keys,ready2.rt,key_resp.keys,key_resp.rt,key_resp_3.keys,key_resp_3.rt,key_resp_2.keys,key_resp_2.rt,ready3.keys,ready3.rt,resp.keys,resp.rt,withinBlock.thisRepN,withinBlock.thisTrialN,withinBlock.thisN,withinBlock.thisIndex,withinBlock.ran,word,Azonosító,Az Ön neme,Születési éve,Hány évet töltött az iskolapadban (egyetemet is beleértve),date,expName,psychopyVersion,OS,frameRate
space,3.299255,space,0.929075,right,1.228355,left,0.802865,left,0.583925,space,4.31267,right,0.80863,0,0,0,80,1,darab,K105,nő,1999.06.22,15,2021-05-14_14h50.07.011,ranlexdec,2020.2.5,Win32,60
,,,,,,,,,,,,right,0.859405,0,1,1,171,1,újgazdag,K105,nő,1999.06.22,15,2021-05-14_14h50.07.011,ranlexdec,2020.2.5,Win32,60
,,,,,,,,,,,,left,0.851855,0,2,2,204,1,kocskesi,K105,nő,1999.06.22,15,2021-05-14_14h50.07.011,ranlexdec,2020.2.5,Win32,60
,,,,,,,,,,,,right,0.756505,0,3,3,168,1,grafikon,K105,nő,1999.06.22,15,2021-05-14_14h50.07.011,ranlexdec,2020.2.5,Win32,60
,,,,,,,,,,,,left,0.849675,0,4,4,81,1,takorák,K105,nő,1999.06.22,15,2021-05-14_14h50.07.011,ranlexdec,2020.2.5,Win32,60
,,,,,,,,,,,,right,0.722455,0,5,5,69,1,gerencsér,K105,nő,1999.06.22,15,2021-05-14_14h50.07.011,ranlexdec,2020.2.5,Win32,60
,,,,,,,,,,,,left,1.06653,0,6,6,50,1,csenyei,K105,nő,1999.06.22,15,2021-05-14_14h50.07.011,ranlexdec,2020.2.5,Win32,60
,,,,,,,,,,,,right,0.65645,0,7,7,58,1,barát,K105,nő,1999.06.22,15,2021-05-14_14h50.07.011,ranlexdec,2020.2.5,Win32,60
,,,,,,,,,,,,left,0.953625,0,8,8,166,1,retálhit,K105,nő,1999.06.22,15,2021-05-14_14h50.07.011,ranlexdec,2020.2.5,Win32,60
,,,,,,,,,,,,right,0.88504,0,9,9,174,1,cianid,K105,nő,1999.06.22,15,2021-05-14_14h50.07.011,ranlexdec,2020.2.5,Win32,60
,,,,,,,,,,,,right,1.251365,0,10,10,72,1,mihálóz,K105,nő,1999.06.22,15,2021-05-14_14h50.07.011,ranlexdec,2020.2.5,Win32,60
,,,,,,,,,,,,right,0.70236,0,11,11,147,1,referál,K105,nő,1999.06.22,15,2021-05-14_14h50.07.011,ranlexdec,2020.2.5,Win32,60
,,,,,,,,,,,,right,0.75678,0,12,12,193,1,bacon,K105,nő,1999.06.22,15,2021-05-14_14h50.07.011,ranlexdec,2020.2.5,Win32,60
,,,,,,,,,,,,left,0.89925,0,13,13,190,1,rámáz,K105,nő,1999.06.22,15,2021-05-14_14h50.07.011,ranlexdec,2020.2.5,Win32,60
,,,,,,,,,,,,right,1.552265,0,14,14,4,1,viszonvád,K105,nő,1999.06.22,15,2021-05-14_14h50.07.011,ranlexdec,2020.2.5,Win32,60
,,,,,,,,,,,,right,0.750185,0,15,15,94,1,rotor,K105,nő,1999.06.22,15,2021-05-14_14h50.07.011,ranlexdec,2020.2.5,Win32,60
,,,,,,,,,,,,left,0.97791,0,16,16,219,1,szimboló,K105,nő,1999.06.22,15,2021-05-14_14h50.07.011,ranlexdec,2020.2.5,Win32,60
,,,,,,,,,,,,right,1.158015,0,17,17,41,1,nagybeteg,K105,nő,1999.06.22,15,2021-05-14_14h50.07.011,ranlexdec,2020.2.5,Win32,60
,,,,,,,,,,,,left,1.01065,0,18,18,229,1,lemesség,K105,nő,1999.06.22,15,2021-05-14_14h50.07.011,ranlexdec,2020.2.5,Win32,60
,,,,,,,,,,,,left,0.805785,0,19,19,137,1,aragas,K105,nő,1999.06.22,15,2021-05-14_14h50.07.011,ranlexdec,2020.2.5,Win32,60
,,,,,,,,,,,,right,0.650075,0,20,20,238,1,bolgár,K105,nő,1999.06.22,15,2021-05-14_14h50.07.011,ranlexdec,2020.2.5,Win32,60
,,,,,,,,,,,,right,1.08223,0,21,21,239,1,donhuán,K105,nő,1999.06.22,15,2021-05-14_14h50.07.011,ranlexdec,2020.2.5,Win32,60
,,,,,,,,,,,,right,0.89995,0,22,22,63,1,viszkózus,K105,nő,1999.06.22,15,2021-05-14_14h50.07.011,ranlexdec,2020.2.5,Win32,60
,,,,,,,,,,,,left,0.983425,0,23,23,198,1,lublika,K105,nő,1999.06.22,15,2021-05-14_14h50.07.011,ranlexdec,2020.2.5,Win32,60
,,,,,,,,,,,,left,1.05862,0,24,24,119,1,cugehőr,K105,nő,1999.06.22,15,2021-05-14_14h50.07.011,ranlexdec,2020.2.5,Win32,60
,,,,,,,,,,,,left,1.635255,0,25,25,117,1,ószeven,K105,nő,1999.06.22,15,2021-05-14_14h50.07.011,ranlexdec,2020.2.5,Win32,60
,,,,,,,,,,,,right,1.372315,0,26,26,156,1,lazúroz,K105,nő,1999.06.22,15,2021-05-14_14h50.07.011,ranlexdec,2020.2.5,Win32,60
,,,,,,,,,,,,right,0.69973,0,27,27,12,1,gyapot,K105,nő,1999.06.22,15,2021-05-14_14h50.07.011,ranlexdec,2020.2.5,Win32,60
,,,,,,,,,,,,left,1.167625,0,28,28,96,1,alfél,K105,nő,1999.06.22,15,2021-05-14_14h50.07.011,ranlexdec,2020.2.5,Win32,60
,,,,,,,,,,,,right,0.619535,0,29,29,20,1,század,K105,nő,1999.06.22,15,2021-05-14_14h50.07.011,ranlexdec,2020.2.5,Win32,60
,,,,,,,,,,,,left,0.789295,0,30,30,57,1,lejmol,K105,nő,1999.06.22,15,2021-05-14_14h50.07.011,ranlexdec,2020.2.5,Win32,60
,,,,,,,,,,,,right,0.56094,0,31,31,246,1,beton,K105,nő,1999.06.22,15,2021-05-14_14h50.07.011,ranlexdec,2020.2.5,Win32,60
,,,,,,,,,,,,right,0.9665,0,32,32,148,1,mellényzseb,K105,nő,1999.06.22,15,2021-05-14_14h50.07.011,ranlexdec,2020.2.5,Win32,60
,,,,,,,,,,,,right,0.705465,0,33,33,227,1,kötődik,K105,nő,1999.06.22,15,2021-05-14_14h50.07.011,ranlexdec,2020.2.5,Win32,60
,,,,,,,,,,,,left,1.03308,0,34,34,141,1,hider,K105,nő,1999.06.22,15,2021-05-14_14h50.07.011,ranlexdec,2020.2.5,Win32,60
,,,,,,,,,,,,left,1.025645,0,35,35,23,1,szelégül,K105,nő,1999.06.22,15,2021-05-14_14h50.07.011,ranlexdec,2020.2.5,Win32,60
,,,,,,,,,,,,right,0.816635,0,36,36,92,1,lágyék,K105,nő,1999.06.22,15,2021-05-14_14h50.07.011,ranlexdec,2020.2.5,Win32,60
,,,,,,,,,,,,left,1.150205,0,37,37,139,1,vároló,K105,nő,1999.06.22,15,2021-05-14_14h50.07.011,ranlexdec,2020.2.5,Win32,60
,,,,,,,,,,,,right,1.018525,0,38,38,145,1,kurtít,K105,nő,1999.06.22,15,2021-05-14_14h50.07.011,ranlexdec,2020.2.5,Win32,60
,,,,,,,,,,,,right,0.892525,0,39,39,153,1,kontrapunkt,K105,nő,1999.06.22,15,2021-05-14_14h50.07.011,ranlexdec,2020.2.5,Win32,60
,,,,,,,,,,,,right,1.436225,0,40,40,232,1,tropikus,K105,nő,1999.06.22,15,2021-05-14_14h50.07.011,ranlexdec,2020.2.5,Win32,60
,,,,,,,,,,,,right,0.731845,0,41,41,161,1,példakép,K105,nő,1999.06.22,15,2021-05-14_14h50.07.011,ranlexdec,2020.2.5,Win32,60
,,,,,,,,,,,,left,1.23453,0,42,42,224,1,truccol,K105,nő,1999.06.22,15,2021-05-14_14h50.07.011,ranlexdec,2020.2.5,Win32,60
,,,,,,,,,,,,right,0.72391,0,43,43,175,1,szilikát,K105,nő,1999.06.22,15,2021-05-14_14h50.07.011,ranlexdec,2020.2.5,Win32,60
,,,,,,,,,,,,right,0.874375,0,44,44,182,1,nagyszámú,K105,nő,1999.06.22,15,2021-05-14_14h50.07.011,ranlexdec,2020.2.5,Win32,60
,,,,,,,,,,,,right,0.570575,0,45,45,144,1,rövid,K105,nő,1999.06.22,15,2021-05-14_14h50.07.011,ranlexdec,2020.2.5,Win32,60
,,,,,,,,,,,,left,1.038435,0,46,46,240,1,áradmány,K105,nő,1999.06.22,15,2021-05-14_14h50.07.011,ranlexdec,2020.2.5,Win32,60
,,,,,,,,,,,,left,1.01595,0,47,47,103,1,szabotró,K105,nő,1999.06.22,15,2021-05-14_14h50.07.011,ranlexdec,2020.2.5,Win32,60
,,,,,,,,,,,,right,0.68261,0,48,48,151,1,komplex,K105,nő,1999.06.22,15,2021-05-14_14h50.07.011,ranlexdec,2020.2.5,Win32,60
,,,,,,,,,,,,right,0.977785,0,49,49,248,1,örmény,K105,nő,1999.06.22,15,2021-05-14_14h50.07.011,ranlexdec,2020.2.5,Win32,60
,,,,,,,,,,,,left,1.36666,0,50,50,93,1,kilukát,K105,nő,1999.06.22,15,2021-05-14_14h50.07.011,ranlexdec,2020.2.5,Win32,60
,,,,,,,,,,,,left,0.849675,0,51,51,127,1,rozintem,K105,nő,1999.06.22,15,2021-05-14_14h50.07.011,ranlexdec,2020.2.5,Win32,60
,,,,,,,,,,,,right,0.866735,0,52,52,242,1,rekvizit,K105,nő,1999.06.22,15,2021-05-14_14h50.07.011,ranlexdec,2020.2.5,Win32,60
,,,,,,,,,,,,right,0.80268,0,53,53,19,1,tangózik,K105,nő,1999.06.22,15,2021-05-14_14h50.07.011,ranlexdec,2020.2.5,Win32,60
,,,,,,,,,,,,right,0.70933,0,54,54,105,1,tököl,K105,nő,1999.06.22,15,2021-05-14_14h50.07.011,ranlexdec,2020.2.5,Win32,60
,,,,,,,,,,,,right,1.58354,0,55,55,60,1,bárányfark,K105,nő,1999.06.22,15,2021-05-14_14h50.07.011,ranlexdec,2020.2.5,Win32,60
,,,,,,,,,,,,left,0.89856,0,56,56,118,1,libling,K105,nő,1999.06.22,15,2021-05-14_14h50.07.011,ranlexdec,2020.2.5,Win32,60
,,,,,,,,,,,,right,1.08168,0,57,57,111,1,koenzim,K105,nő,1999.06.22,15,2021-05-14_14h50.07.011,ranlexdec,2020.2.5,Win32,60
,,,,,,,,,,,,right,0.83376,0,58,58,68,1,kitin,K105,nő,1999.06.22,15,2021-05-14_14h50.07.011,ranlexdec,2020.2.5,Win32,60
,,,,,,,,,,,,right,0.89474,0,59,59,202,1,abszint,K105,nő,1999.06.22,15,2021-05-14_14h50.07.011,ranlexdec,2020.2.5,Win32,60
,,,,,,,,,,,,right,1.432365,0,60,60,217,1,ifjít,K105,nő,1999.06.22,15,2021-05-14_14h50.07.011,ranlexdec,2020.2.5,Win32,60
,,,,,,,,,,,,right,0.903485,0,61,61,121,1,aggófű,K105,nő,1999.06.22,15,2021-05-14_14h50.07.011,ranlexdec,2020.2.5,Win32,60
,,,,,,,,,,,,left,1.102265,0,62,62,109,1,vényegő,K105,nő,1999.06.22,15,2021-05-14_14h50.07.011,ranlexdec,2020.2.5,Win32,60
,,,,,,,,,,,,right,1.31705,0,63,63,35,1,türemlik,K105,nő,1999.06.22,15,2021-05-14_14h50.07.011,ranlexdec,2020.2.5,Win32,60
,,,,,,,,,,,,right,0.60006,0,64,64,43,1,közhely,K105,nő,1999.06.22,15,2021-05-14_14h50.07.011,ranlexdec,2020.2.5,Win32,60
,,,,,,,,,,,,right,1.158255,0,65,65,243,1,dipeptid,K105,nő,1999.06.22,15,2021-05-14_14h50.07.011,ranlexdec,2020.2.5,Win32,60
,,,,,,,,,,,,right,0.618645,0,66,66,138,1,gyűjtemény,K105,nő,1999.06.22,15,2021-05-14_14h50.07.011,ranlexdec,2020.2.5,Win32,60
,,,,,,,,,,,,left,1.4207,0,67,67,74,1,püffeszt,K105,nő,1999.06.22,15,2021-05-14_14h50.07.011,ranlexdec,2020.2.5,Win32,60
,,,,,,,,,,,,right,0.72702,0,68,68,101,1,nukleon,K105,nő,1999.06.22,15,2021-05-14_14h50.07.011,ranlexdec,2020.2.5,Win32,60
,,,,,,,,,,,,right,0.972955,0,69,69,100,1,balközép,K105,nő,1999.06.22,15,2021-05-14_14h50.07.011,ranlexdec,2020.2.5,Win32,60
,,,,,,,,,,,,right,1.14563,0,70,70,34,1,csengettyű,K105,nő,1999.06.22,15,2021-05-14_14h50.07.011,ranlexdec,2020.2.5,Win32,60
,,,,,,,,,,,,left,0.9752,0,71,71,49,1,ernyak,K105,nő,1999.06.22,15,2021-05-14_14h50.07.011,ranlexdec,2020.2.5,Win32,60
,,,,,,,,,,,,left,0.738845,0,72,72,36,1,tröshet,K105,nő,1999.06.22,15,2021-05-14_14h50.07.011,ranlexdec,2020.2.5,Win32,60
,,,,,,,,,,,,right,0.560255,0,73,73,196,1,dolgozik,K105,nő,1999.06.22,15,2021-05-14_14h50.07.011,ranlexdec,2020.2.5,Win32,60
,,,,,,,,,,,,left,1.433655,0,74,74,223,1,árstop,K105,nő,1999.06.22,15,2021-05-14_14h50.07.011,ranlexdec,2020.2.5,Win32,60
,,,,,,,,,,,,left,1.215985,0,75,75,52,1,kunyai,K105,nő,1999.06.22,15,2021-05-14_14h50.07.011,ranlexdec,2020.2.5,Win32,60
,,,,,,,,,,,,left,0.915675,0,76,76,2,1,gyásos,K105,nő,1999.06.22,15,2021-05-14_14h50.07.011,ranlexdec,2020.2.5,Win32,60
,,,,,,,,,,,,right,0.782925,0,77,77,56,1,kanalaz,K105,nő,1999.06.22,15,2021-05-14_14h50.07.011,ranlexdec,2020.2.5,Win32,60
,,,,,,,,,,,,right,0.60146,0,78,78,158,1,hidroxid,K105,nő,1999.06.22,15,2021-05-14_14h50.07.011,ranlexdec,2020.2.5,Win32,60
,,,,,,,,,,,,left,0.83342,0,79,79,134,1,móringol,K105,nő,1999.06.22,15,2021-05-14_14h50.07.011,ranlexdec,2020.2.5,Win32,60
,,,,,,,,,,,,right,0.69408,0,80,80,135,1,ion,K105,nő,1999.06.22,15,2021-05-14_14h50.07.011,ranlexdec,2020.2.5,Win32,60
,,,,,,,,,,,,right,0.54121,0,81,81,188,1,sugár,K105,nő,1999.06.22,15,2021-05-14_14h50.07.011,ranlexdec,2020.2.5,Win32,60
,,,,,,,,,,,,left,1.60255,0,82,82,95,1,skubizik,K105,nő,1999.06.22,15,2021-05-14_14h50.07.011,ranlexdec,2020.2.5,Win32,60
,,,,,,,,,,,,right,0.55722,0,83,83,124,1,alkalom,K105,nő,1999.06.22,15,2021-05-14_14h50.07.011,ranlexdec,2020.2.5,Win32,60
,,,,,,,,,,,,right,1.51575,0,84,84,146,1,kondenzcsík,K105,nő,1999.06.22,15,2021-05-14_14h50.07.011,ranlexdec,2020.2.5,Win32,60
,,,,,,,,,,,,right,0.54402,0,85,85,126,1,rejtőzik,K105,nő,1999.06.22,15,2021-05-14_14h50.07.011,ranlexdec,2020.2.5,Win32,60
,,,,,,,,,,,,left,0.9097,0,86,86,203,1,abeti,K105,nő,1999.06.22,15,2021-05-14_14h50.07.011,ranlexdec,2020.2.5,Win32,60
,,,,,,,,,,,,right,0.63625,0,87,87,10,1,nárcisz,K105,nő,1999.06.22,15,2021-05-14_14h50.07.011,ranlexdec,2020.2.5,Win32,60
,,,,,,,,,,,,right,0.550035,0,88,88,114,1,tartalom,K105,nő,1999.06.22,15,2021-05-14_14h50.07.011,ranlexdec,2020.2.5,Win32,60
,,,,,,,,,,,,left,0.873995,0,89,89,207,1,diffamál,K105,nő,1999.06.22,15,2021-05-14_14h50.07.011,ranlexdec,2020.2.5,Win32,60
,,,,,,,,,,,,right,0.53816,0,90,90,210,1,karakter,K105,nő,1999.06.22,15,2021-05-14_14h50.07.011,ranlexdec,2020.2.5,Win32,60
,,,,,,,,,,,,right,0.575775,0,91,91,200,1,biliárd,K105,nő,1999.06.22,15,2021-05-14_14h50.07.011,ranlexdec,2020.2.5,Win32,60
,,,,,,,,,,,,right,0.59906,0,92,92,61,1,régész,K105,nő,1999.06.22,15,2021-05-14_14h50.07.011,ranlexdec,2020.2.5,Win32,60
,,,,,,,,,,,,right,0.670725,0,93,93,178,1,sziszeg,K105,nő,1999.06.22,15,2021-05-14_14h50.07.011,ranlexdec,2020.2.5,Win32,60
,,,,,,,,,,,,right,0.59066,0,94,94,179,1,töredék,K105,nő,1999.06.22,15,2021-05-14_14h50.07.011,ranlexdec,2020.2.5,Win32,60
,,,,,,,,,,,,right,0.50637,0,95,95,7,1,űrlap,K105,nő,1999.06.22,15,2021-05-14_14h50.07.011,ranlexdec,2020.2.5,Win32,60
,,,,,,,,,,,,right,0.48858,0,96,96,221,1,törődik,K105,nő,1999.06.22,15,2021-05-14_14h50.07.011,ranlexdec,2020.2.5,Win32,60
,,,,,,,,,,,,right,0.544245,0,97,97,54,1,fürkész,K105,nő,1999.06.22,15,2021-05-14_14h50.07.011,ranlexdec,2020.2.5,Win32,60
,,,,,,,,,,,,left,1.017455,0,98,98,82,1,kvéker,K105,nő,1999.06.22,15,2021-05-14_14h50.07.011,ranlexdec,2020.2.5,Win32,60
,,,,,,,,,,,,left,1.191655,0,99,99,66,1,parkkói,K105,nő,1999.06.22,15,2021-05-14_14h50.07.011,ranlexdec,2020.2.5,Win32,60
,,,,,,,,,,,,right,0.634995,0,100,100,98,1,mítosz,K105,nő,1999.06.22,15,2021-05-14_14h50.07.011,ranlexdec,2020.2.5,Win32,60
,,,,,,,,,,,,right,0.492545,0,101,101,48,1,reagál,K105,nő,1999.06.22,15,2021-05-14_14h50.07.011,ranlexdec,2020.2.5,Win32,60
,,,,,,,,,,,,right,0.755845,0,102,102,211,1,tábornagy,K105,nő,1999.06.22,15,2021-05-14_14h50.07.011,ranlexdec,2020.2.5,Win32,60
,,,,,,,,,,,,right,0.59246,0,103,103,230,1,délceg,K105,nő,1999.06.22,15,2021-05-14_14h50.07.011,ranlexdec,2020.2.5,Win32,60
,,,,,,,,,,,,right,0.708195,0,104,104,113,1,piktogram,K105,nő,1999.06.22,15,2021-05-14_14h50.07.011,ranlexdec,2020.2.5,Win32,60
,,,,,,,,,,,,right,1.434675,0,105,105,163,1,kollapszus,K105,nő,1999.06.22,15,2021-05-14_14h50.07.011,ranlexdec,2020.2.5,Win32,60
,,,,,,,,,,,,right,0.56597,0,106,106,185,1,gyülemlik,K105,nő,1999.06.22,15,2021-05-14_14h50.07.011,ranlexdec,2020.2.5,Win32,60
,,,,,,,,,,,,right,0.51252,0,107,107,78,1,törékeny,K105,nő,1999.06.22,15,2021-05-14_14h50.07.011,ranlexdec,2020.2.5,Win32,60
,,,,,,,,,,,,left,1.158885,0,108,108,155,1,megpadék,K105,nő,1999.06.22,15,2021-05-14_14h50.07.011,ranlexdec,2020.2.5,Win32,60
,,,,,,,,,,,,right,1.291575,0,109,109,62,1,bizmut,K105,nő,1999.06.22,15,2021-05-14_14h50.07.011,ranlexdec,2020.2.5,Win32,60
,,,,,,,,,,,,right,1.09096,0,110,110,120,1,komál,K105,nő,1999.06.22,15,2021-05-14_14h50.07.011,ranlexdec,2020.2.5,Win32,60
,,,,,,,,,,,,right,0.93187,0,111,111,199,1,ború,K105,nő,1999.06.22,15,2021-05-14_14h50.07.011,ranlexdec,2020.2.5,Win32,60
,,,,,,,,,,,,right,0.543415,0,112,112,73,1,olaj,K105,nő,1999.06.22,15,2021-05-14_14h50.07.011,ranlexdec,2020.2.5,Win32,60
,,,,,,,,,,,,right,0.876785,0,113,113,37,1,lukaszt,K105,nő,1999.06.22,15,2021-05-14_14h50.07.011,ranlexdec,2020.2.5,Win32,60
,,,,,,,,,,,,left,3.165735,0,114,114,233,1,templomoz,K105,nő,1999.06.22,15,2021-05-14_14h50.07.011,ranlexdec,2020.2.5,Win32,60
,,,,,,,,,,,,left,0.89877,0,115,115,40,1,diviz,K105,nő,1999.06.22,15,2021-05-14_14h50.07.011,ranlexdec,2020.2.5,Win32,60
,,,,,,,,,,,,left,1.527995,0,116,116,172,1,kettősfém,K105,nő,1999.06.22,15,2021-05-14_14h50.07.011,ranlexdec,2020.2.5,Win32,60
,,,,,,,,,,,,left,1.850135,0,117,117,173,1,glosszáz,K105,nő,1999.06.22,15,2021-05-14_14h50.07.011,ranlexdec,2020.2.5,Win32,60
,,,,,,,,,,,,left,1.071015,0,118,118,234,1,fertilis,K105,nő,1999.06.22,15,2021-05-14_14h50.07.011,ranlexdec,2020.2.5,Win32,60
,,,,,,,,,,,,left,0.7749,0,119,119,186,1,piláf,K105,nő,1999.06.22,15,2021-05-14_14h50.07.011,ranlexdec,2020.2.5,Win32,60
,,,,,,,,,,,,right,0.95493,0,120,120,128,1,csüggedez,K105,nő,1999.06.22,15,2021-05-14_14h50.07.011,ranlexdec,2020.2.5,Win32,60
,,,,,,,,,,,,right,0.591915,0,121,121,149,1,anorák,K105,nő,1999.06.22,15,2021-05-14_14h50.07.011,ranlexdec,2020.2.5,Win32,60
,,,,,,,,,,,,right,0.651105,0,122,122,184,1,profit,K105,nő,1999.06.22,15,2021-05-14_14h50.07.011,ranlexdec,2020.2.5,Win32,60
,,,,,,,,,,,,left,1.020025,0,123,123,102,1,pentez,K105,nő,1999.06.22,15,2021-05-14_14h50.07.011,ranlexdec,2020.2.5,Win32,60
,,,,,,,,,,,,left,1.015215,0,124,124,30,1,dádá,K105,nő,1999.06.22,15,2021-05-14_14h50.07.011,ranlexdec,2020.2.5,Win32,60
,,,,,,,,,,,,left,0.900145,0,125,125,71,1,extuál,K105,nő,1999.06.22,15,2021-05-14_14h50.07.011,ranlexdec,2020.2.5,Win32,60
,,,,,,,,,,,,right,1.08199,0,126,126,195,1,petél,K105,nő,1999.06.22,15,2021-05-14_14h50.07.011,ranlexdec,2020.2.5,Win32,60
,,,,,,,,,,,,right,0.767505,0,127,127,9,1,hajlik,K105,nő,1999.06.22,15,2021-05-14_14h50.07.011,ranlexdec,2020.2.5,Win32,60
,,,,,,,,,,,,right,0.60223,0,128,128,231,1,igény,K105,nő,1999.06.22,15,2021-05-14_14h50.07.011,ranlexdec,2020.2.5,Win32,60
,,,,,,,,,,,,right,0.66108,0,129,129,165,1,lépték,K105,nő,1999.06.22,15,2021-05-14_14h50.07.011,ranlexdec,2020.2.5,Win32,60
,,,,,,,,,,,,left,0.82152,0,130,130,192,1,norvend,K105,nő,1999.06.22,15,2021-05-14_14h50.07.011,ranlexdec,2020.2.5,Win32,60
,,,,,,,,,,,,right,0.535875,0,131,131,208,1,lélek,K105,nő,1999.06.22,15,2021-05-14_14h50.07.011,ranlexdec,2020.2.5,Win32,60
,,,,,,,,,,,,right,0.53338,0,132,132,140,1,diktátor,K105,nő,1999.06.22,15,2021-05-14_14h50.07.011,ranlexdec,2020.2.5,Win32,60
,,,,,,,,,,,,left,0.938985,0,133,133,91,1,tajtásos,K105,nő,1999.06.22,15,2021-05-14_14h50.07.011,ranlexdec,2020.2.5,Win32,60
,,,,,,,,,,,,left,0.9837,0,134,134,87,1,forrpont,K105,nő,1999.06.22,15,2021-05-14_14h50.07.011,ranlexdec,2020.2.5,Win32,60
,,,,,,,,,,,,right,0.516115,0,135,135,110,1,időszak,K105,nő,1999.06.22,15,2021-05-14_14h50.07.011,ranlexdec,2020.2.5,Win32,60
,,,,,,,,,,,,right,0.516905,0,136,136,245,1,ellenfél,K105,nő,1999.06.22,15,2021-05-14_14h50.07.011,ranlexdec,2020.2.5,Win32,60
,,,,,,,,,,,,right,0.70038,0,137,137,123,1,luftballon,K105,nő,1999.06.22,15,2021-05-14_14h50.07.011,ranlexdec,2020.2.5,Win32,60
,,,,,,,,,,,,right,0.69435,0,138,138,55,1,látszik,K105,nő,1999.06.22,15,2021-05-14_14h50.07.011,ranlexdec,2020.2.5,Win32,60
,,,,,,,,,,,,right,0.565995,0,139,139,104,1,dolog,K105,nő,1999.06.22,15,2021-05-14_14h50.07.011,ranlexdec,2020.2.5,Win32,60
,,,,,,,,,,,,right,0.857655,0,140,140,170,1,változik,K105,nő,1999.06.22,15,2021-05-14_14h50.07.011,ranlexdec,2020.2.5,Win32,60
,,,,,,,,,,,,right,0.63434,0,141,141,228,1,tarol,K105,nő,1999.06.22,15,2021-05-14_14h50.07.011,ranlexdec,2020.2.5,Win32,60
,,,,,,,,,,,,left,0.81684,0,142,142,115,1,fajansz,K105,nő,1999.06.22,15,2021-05-14_14h50.07.011,ranlexdec,2020.2.5,Win32,60
,,,,,,,,,,,,right,1.094065,0,143,143,235,1,transzplantál,K105,nő,1999.06.22,15,2021-05-14_14h50.07.011,ranlexdec,2020.2.5,Win32,60
,,,,,,,,,,,,right,0.525225,0,144,144,241,1,kárpit,K105,nő,1999.06.22,15,2021-05-14_14h50.07.011,ranlexdec,2020.2.5,Win32,60
,,,,,,,,,,,,right,0.504995,0,145,145,39,1,könnyelmű,K105,nő,1999.06.22,15,2021-05-14_14h50.07.011,ranlexdec,2020.2.5,Win32,60
,,,,,,,,,,,,left,0.834395,0,146,146,181,1,dohorpák,K105,nő,1999.06.22,15,2021-05-14_14h50.07.011,ranlexdec,2020.2.5,Win32,60
,,,,,,,,,,,,right,1.01091,0,147,147,17,1,magmatit,K105,nő,1999.06.22,15,2021-05-14_14h50.07.011,ranlexdec,2020.2.5,Win32,60
,,,,,,,,,,,,left,0.9504,0,148,148,77,1,egant,K105,nő,1999.06.22,15,2021-05-14_14h50.07.011,ranlexdec,2020.2.5,Win32,60
,,,,,,,,,,,,right,0.554425,0,149,149,132,1,hatalom,K105,nő,1999.06.22,15,2021-05-14_14h50.07.011,ranlexdec,2020.2.5,Win32,60
,,,,,,,,,,,,left,0.919205,0,150,150,225,1,bajadér,K105,nő,1999.06.22,15,2021-05-14_14h50.07.011,ranlexdec,2020.2.5,Win32,60
,,,,,,,,,,,,right,1.38261,0,151,151,180,1,adszorbens,K105,nő,1999.06.22,15,2021-05-14_14h50.07.011,ranlexdec,2020.2.5,Win32,60
,,,,,,,,,,,,right,0.47271,0,152,152,79,1,extrém,K105,nő,1999.06.22,15,2021-05-14_14h50.07.011,ranlexdec,2020.2.5,Win32,60
,,,,,,,,,,,,left,1.01662,0,153,153,226,1,szalicil,K105,nő,1999.06.22,15,2021-05-14_14h50.07.011,ranlexdec,2020.2.5,Win32,60
,,,,,,,,,,,,right,0.4508,0,154,154,25,1,reform,K105,nő,1999.06.22,15,2021-05-14_14h50.07.011,ranlexdec,2020.2.5,Win32,60
,,,,,,,,,,,,right,0.571125,0,155,155,31,1,iszlám,K105,nő,1999.06.22,15,2021-05-14_14h50.07.011,ranlexdec,2020.2.5,Win32,60
,,,,,,,,,,,,right,0.51105,0,156,156,176,1,bélyeg,K105,nő,1999.06.22,15,2021-05-14_14h50.07.011,ranlexdec,2020.2.5,Win32,60
,,,,,,,,,,,,left,0.77428,0,157,157,167,1,vabank,K105,nő,1999.06.22,15,2021-05-14_14h50.07.011,ranlexdec,2020.2.5,Win32,60
,,,,,,,,,,,,right,0.55019,0,158,158,247,1,ausztrál,K105,nő,1999.06.22,15,2021-05-14_14h50.07.011,ranlexdec,2020.2.5,Win32,60
,,,,,,,,,,,,right,0.90297,0,159,159,21,1,heveny,K105,nő,1999.06.22,15,2021-05-14_14h50.07.011,ranlexdec,2020.2.5,Win32,60
,,,,,,,,,,,,left,1.269365,0,160,160,42,1,összalaj,K105,nő,1999.06.22,15,2021-05-14_14h50.07.011,ranlexdec,2020.2.5,Win32,60
,,,,,,,,,,,,left,0.766305,0,161,161,3,1,tömzsa,K105,nő,1999.06.22,15,2021-05-14_14h50.07.011,ranlexdec,2020.2.5,Win32,60
,,,,,,,,,,,,right,0.69935,0,162,162,201,1,szempont,K105,nő,1999.06.22,15,2021-05-14_14h50.07.011,ranlexdec,2020.2.5,Win32,60
,,,,,,,,,,,,left,0.966445,0,163,163,125,1,úszamos,K105,nő,1999.06.22,15,2021-05-14_14h50.07.011,ranlexdec,2020.2.5,Win32,60
,,,,,,,,,,,,left,0.965875,0,164,164,212,1,farkasbab,K105,nő,1999.06.22,15,2021-05-14_14h50.07.011,ranlexdec,2020.2.5,Win32,60
,,,,,,,,,,,,right,0.928975,0,165,165,143,1,rojtoz,K105,nő,1999.06.22,15,2021-05-14_14h50.07.011,ranlexdec,2020.2.5,Win32,60
,,,,,,,,,,,,right,0.68671,0,166,166,11,1,viszkóz,K105,nő,1999.06.22,15,2021-05-14_14h50.07.011,ranlexdec,2020.2.5,Win32,60
,,,,,,,,,,,,right,0.67911,0,167,167,45,1,népszerű,K105,nő,1999.06.22,15,2021-05-14_14h50.07.011,ranlexdec,2020.2.5,Win32,60
,,,,,,,,,,,,right,0.470055,0,168,168,214,1,tenger,K105,nő,1999.06.22,15,2021-05-14_14h50.07.011,ranlexdec,2020.2.5,Win32,60
,,,,,,,,,,,,left,0.83814,0,169,169,142,1,storítő,K105,nő,1999.06.22,15,2021-05-14_14h50.07.011,ranlexdec,2020.2.5,Win32,60
,,,,,,,,,,,,left,1.25568,0,170,170,106,1,lalláz,K105,nő,1999.06.22,15,2021-05-14_14h50.07.011,ranlexdec,2020.2.5,Win32,60
,,,,,,,,,,,,left,0.849835,0,171,171,65,1,infimum,K105,nő,1999.06.22,15,2021-05-14_14h50.07.011,ranlexdec,2020.2.5,Win32,60
,,,,,,,,,,,,left,0.952675,0,172,172,197,1,krakéler,K105,nő,1999.06.22,15,2021-05-14_14h50.07.011,ranlexdec,2020.2.5,Win32,60
,,,,,,,,,,,,left,1.373735,0,173,173,44,1,ingváll,K105,nő,1999.06.22,15,2021-05-14_14h50.07.011,ranlexdec,2020.2.5,Win32,60
,,,,,,,,,,,,left,1.05032,0,174,174,29,1,novagár,K105,nő,1999.06.22,15,2021-05-14_14h50.07.011,ranlexdec,2020.2.5,Win32,60
,,,,,,,,,,,,right,0.650135,0,175,175,116,1,árus,K105,nő,1999.06.22,15,2021-05-14_14h50.07.011,ranlexdec,2020.2.5,Win32,60
,,,,,,,,,,,,left,1.035215,0,176,176,107,1,kelől,K105,nő,1999.06.22,15,2021-05-14_14h50.07.011,ranlexdec,2020.2.5,Win32,60
,,,,,,,,,,,,left,1.01698,0,177,177,112,1,méhezter,K105,nő,1999.06.22,15,2021-05-14_14h50.07.011,ranlexdec,2020.2.5,Win32,60
,,,,,,,,,,,,left,0.783025,0,178,178,191,1,hitódó,K105,nő,1999.06.22,15,2021-05-14_14h50.07.011,ranlexdec,2020.2.5,Win32,60
,,,,,,,,,,,,right,0.666275,0,179,179,122,1,égitest,K105,nő,1999.06.22,15,2021-05-14_14h50.07.011,ranlexdec,2020.2.5,Win32,60
,,,,,,,,,,,,left,1.034165,0,180,180,83,1,vonzum,K105,nő,1999.06.22,15,2021-05-14_14h50.07.011,ranlexdec,2020.2.5,Win32,60
,,,,,,,,,,,,right,0.61146,0,181,181,154,1,keresztény,K105,nő,1999.06.22,15,2021-05-14_14h50.07.011,ranlexdec,2020.2.5,Win32,60
,,,,,,,,,,,,right,0.89439,0,182,182,15,1,pauzál,K105,nő,1999.06.22,15,2021-05-14_14h50.07.011,ranlexdec,2020.2.5,Win32,60
,,,,,,,,,,,,left,0.88586,0,183,183,205,1,mimézis,K105,nő,1999.06.22,15,2021-05-14_14h50.07.011,ranlexdec,2020.2.5,Win32,60
,,,,,,,,,,,,right,0.589385,0,184,184,160,1,százalék,K105,nő,1999.06.22,15,2021-05-14_14h50.07.011,ranlexdec,2020.2.5,Win32,60
,,,,,,,,,,,,left,0.849375,0,185,185,108,1,konyrúd,K105,nő,1999.06.22,15,2021-05-14_14h50.07.011,ranlexdec,2020.2.5,Win32,60
,,,,,,,,,,,,right,0.905075,0,186,186,237,1,forgórész,K105,nő,1999.06.22,15,2021-05-14_14h50.07.011,ranlexdec,2020.2.5,Win32,60
,,,,,,,,,,,,left,0.83981,0,187,187,249,1,kencéz,K105,nő,1999.06.22,15,2021-05-14_14h50.07.011,ranlexdec,2020.2.5,Win32,60
,,,,,,,,,,,,right,0.521365,0,188,188,67,1,szegény,K105,nő,1999.06.22,15,2021-05-14_14h50.07.011,ranlexdec,2020.2.5,Win32,60
,,,,,,,,,,,,left,0.867155,0,189,189,5,1,retta,K105,nő,1999.06.22,15,2021-05-14_14h50.07.011,ranlexdec,2020.2.5,Win32,60
,,,,,,,,,,,,left,1.319285,0,190,190,162,1,nimbus,K105,nő,1999.06.22,15,2021-05-14_14h50.07.011,ranlexdec,2020.2.5,Win32,60
,,,,,,,,,,,,right,0.62154,0,191,191,169,1,komoly,K105,nő,1999.06.22,15,2021-05-14_14h50.07.011,ranlexdec,2020.2.5,Win32,60
,,,,,,,,,,,,right,0.51962,0,192,192,89,1,szokik,K105,nő,1999.06.22,15,2021-05-14_14h50.07.011,ranlexdec,2020.2.5,Win32,60
,,,,,,,,,,,,right,0.877425,0,193,193,90,1,orális,K105,nő,1999.06.22,15,2021-05-14_14h50.07.011,ranlexdec,2020.2.5,Win32,60
,,,,,,,,,,,,right,0.621465,0,194,194,6,1,csüggeszt,K105,nő,1999.06.22,15,2021-05-14_14h50.07.011,ranlexdec,2020.2.5,Win32,60
,,,,,,,,,,,,right,0.471595,0,195,195,129,1,turné,K105,nő,1999.06.22,15,2021-05-14_14h50.07.011,ranlexdec,2020.2.5,Win32,60
,,,,,,,,,,,,right,0.424135,0,196,196,0,1,irány,K105,nő,1999.06.22,15,2021-05-14_14h50.07.011,ranlexdec,2020.2.5,Win32,60
,,,,,,,,,,,,right,0.54858,0,197,197,53,1,puritán,K105,nő,1999.06.22,15,2021-05-14_14h50.07.011,ranlexdec,2020.2.5,Win32,60
,,,,,,,,,,,,right,0.54234,0,198,198,46,1,kurzív,K105,nő,1999.06.22,15,2021-05-14_14h50.07.011,ranlexdec,2020.2.5,Win32,60
,,,,,,,,,,,,left,0.96638,0,199,199,216,1,svábtök,K105,nő,1999.06.22,15,2021-05-14_14h50.07.011,ranlexdec,2020.2.5,Win32,60
,,,,,,,,,,,,right,0.703875,0,200,200,33,1,kalcium,K105,nő,1999.06.22,15,2021-05-14_14h50.07.011,ranlexdec,2020.2.5,Win32,60
,,,,,,,,,,,,right,0.774185,0,201,201,13,1,törköly,K105,nő,1999.06.22,15,2021-05-14_14h50.07.011,ranlexdec,2020.2.5,Win32,60
,,,,,,,,,,,,left,1.282955,0,202,202,131,1,vetézmés,K105,nő,1999.06.22,15,2021-05-14_14h50.07.011,ranlexdec,2020.2.5,Win32,60
,,,,,,,,,,,,left,0.937355,0,203,203,75,1,karnogó,K105,nő,1999.06.22,15,2021-05-14_14h50.07.011,ranlexdec,2020.2.5,Win32,60
,,,,,,,,,,,,right,0.69856,0,204,204,236,1,csatázik,K105,nő,1999.06.22,15,2021-05-14_14h50.07.011,ranlexdec,2020.2.5,Win32,60
,,,,,,,,,,,,left,0.894405,0,205,205,164,1,kurzivál,K105,nő,1999.06.22,15,2021-05-14_14h50.07.011,ranlexdec,2020.2.5,Win32,60
,,,,,,,,,,,,left,1.326275,0,206,206,136,1,rücsök,K105,nő,1999.06.22,15,2021-05-14_14h50.07.011,ranlexdec,2020.2.5,Win32,60
,,,,,,,,,,,,right,0.9984,0,207,207,14,1,selypít,K105,nő,1999.06.22,15,2021-05-14_14h50.07.011,ranlexdec,2020.2.5,Win32,60
,,,,,,,,,,,,right,0.65045,0,208,208,183,1,színpad,K105,nő,1999.06.22,15,2021-05-14_14h50.07.011,ranlexdec,2020.2.5,Win32,60
,,,,,,,,,,,,right,0.59124,0,209,209,244,1,kislány,K105,nő,1999.06.22,15,2021-05-14_14h50.07.011,ranlexdec,2020.2.5,Win32,60
,,,,,,,,,,,,right,1.46703,0,210,210,84,1,kúpol,K105,nő,1999.06.22,15,2021-05-14_14h50.07.011,ranlexdec,2020.2.5,Win32,60
,,,,,,,,,,,,right,0.93867,0,211,211,187,1,testnedv,K105,nő,1999.06.22,15,2021-05-14_14h50.07.011,ranlexdec,2020.2.5,Win32,60
,,,,,,,,,,,,right,0.76019,0,212,212,159,1,elegy,K105,nő,1999.06.22,15,2021-05-14_14h50.07.011,ranlexdec,2020.2.5,Win32,60
,,,,,,,,,,,,right,0.660725,0,213,213,99,1,sárgaréz,K105,nő,1999.06.22,15,2021-05-14_14h50.07.011,ranlexdec,2020.2.5,Win32,60
,,,,,,,,,,,,right,1.877835,0,214,214,70,1,lakotthely,K105,nő,1999.06.22,15,2021-05-14_14h50.07.011,ranlexdec,2020.2.5,Win32,60
,,,,,,,,,,,,left,1.16641,0,215,215,150,1,orront,K105,nő,1999.06.22,15,2021-05-14_14h50.07.011,ranlexdec,2020.2.5,Win32,60
,,,,,,,,,,,,right,0.8019,0,216,216,8,1,kulcscsont,K105,nő,1999.06.22,15,2021-05-14_14h50.07.011,ranlexdec,2020.2.5,Win32,60
,,,,,,,,,,,,right,0.876555,0,217,217,32,1,genom,K105,nő,1999.06.22,15,2021-05-14_14h50.07.011,ranlexdec,2020.2.5,Win32,60
,,,,,,,,,,,,right,0.684625,0,218,218,85,1,glükóz,K105,nő,1999.06.22,15,2021-05-14_14h50.07.011,ranlexdec,2020.2.5,Win32,60
,,,,,,,,,,,,right,0.587855,0,219,219,209,1,hidegház,K105,nő,1999.06.22,15,2021-05-14_14h50.07.011,ranlexdec,2020.2.5,Win32,60
,,,,,,,,,,,,right,0.55946,0,220,220,130,1,derít,K105,nő,1999.06.22,15,2021-05-14_14h50.07.011,ranlexdec,2020.2.5,Win32,60
,,,,,,,,,,,,right,0.52414,0,221,221,28,1,gazdag,K105,nő,1999.06.22,15,2021-05-14_14h50.07.011,ranlexdec,2020.2.5,Win32,60
,,,,,,,,,,,,left,1.20192,0,222,222,133,1,hübrisz,K105,nő,1999.06.22,15,2021-05-14_14h50.07.011,ranlexdec,2020.2.5,Win32,60
,,,,,,,,,,,,left,0.829375,0,223,223,26,1,aurult,K105,nő,1999.06.22,15,2021-05-14_14h50.07.011,ranlexdec,2020.2.5,Win32,60
,,,,,,,,,,,,left,0.9029,0,224,224,76,1,jegedény,K105,nő,1999.06.22,15,2021-05-14_14h50.07.011,ranlexdec,2020.2.5,Win32,60
,,,,,,,,,,,,right,0.76607,0,225,225,220,1,csontdarab,K105,nő,1999.06.22,15,2021-05-14_14h50.07.011,ranlexdec,2020.2.5,Win32,60
,,,,,,,,,,,,right,0.6577,0,226,226,222,1,nyersarany,K105,nő,1999.06.22,15,2021-05-14_14h50.07.011,ranlexdec,2020.2.5,Win32,60
,,,,,,,,,,,,right,0.666635,0,227,227,88,1,pohár,K105,nő,1999.06.22,15,2021-05-14_14h50.07.011,ranlexdec,2020.2.5,Win32,60
,,,,,,,,,,,,right,0.73252,0,228,228,18,1,csapattest,K105,nő,1999.06.22,15,2021-05-14_14h50.07.011,ranlexdec,2020.2.5,Win32,60
,,,,,,,,,,,,left,0.84891,0,229,229,16,1,cséltás,K105,nő,1999.06.22,15,2021-05-14_14h50.07.011,ranlexdec,2020.2.5,Win32,60
,,,,,,,,,,,,right,0.6669,0,230,230,177,1,pereg,K105,nő,1999.06.22,15,2021-05-14_14h50.07.011,ranlexdec,2020.2.5,Win32,60
,,,,,,,,,,,,left,0.904875,0,231,231,38,1,zomogyi,K105,nő,1999.06.22,15,2021-05-14_14h50.07.011,ranlexdec,2020.2.5,Win32,60
,,,,,,,,,,,,right,1.007475,0,232,232,22,1,arzénsav,K105,nő,1999.06.22,15,2021-05-14_14h50.07.011,ranlexdec,2020.2.5,Win32,60
,,,,,,,,,,,,right,0.553195,0,233,233,206,1,horizont,K105,nő,1999.06.22,15,2021-05-14_14h50.07.011,ranlexdec,2020.2.5,Win32,60
,,,,,,,,,,,,right,0.76522,0,234,234,157,1,káder,K105,nő,1999.06.22,15,2021-05-14_14h50.07.011,ranlexdec,2020.2.5,Win32,60
,,,,,,,,,,,,right,0.54941,0,235,235,86,1,jármű,K105,nő,1999.06.22,15,2021-05-14_14h50.07.011,ranlexdec,2020.2.5,Win32,60
,,,,,,,,,,,,right,0.949365,0,236,236,189,1,konverzál,K105,nő,1999.06.22,15,2021-05-14_14h50.07.011,ranlexdec,2020.2.5,Win32,60
,,,,,,,,,,,,right,0.581925,0,237,237,64,1,hálózsák,K105,nő,1999.06.22,15,2021-05-14_14h50.07.011,ranlexdec,2020.2.5,Win32,60
,,,,,,,,,,,,right,0.616865,0,238,238,152,1,rakódik,K105,nő,1999.06.22,15,2021-05-14_14h50.07.011,ranlexdec,2020.2.5,Win32,60
,,,,,,,,,,,,right,0.68315,0,239,239,27,1,sporthorgász,K105,nő,1999.06.22,15,2021-05-14_14h50.07.011,ranlexdec,2020.2.5,Win32,60
,,,,,,,,,,,,left,0.75325,0,240,240,218,1,tortya,K105,nő,1999.06.22,15,2021-05-14_14h50.07.011,ranlexdec,2020.2.5,Win32,60
,,,,,,,,,,,,left,0.869905,0,241,241,24,1,kosi,K105,nő,1999.06.22,15,2021-05-14_14h50.07.011,ranlexdec,2020.2.5,Win32,60
,,,,,,,,,,,,left,0.86251,0,242,242,1,1,csapdáz,K105,nő,1999.06.22,15,2021-05-14_14h50.07.011,ranlexdec,2020.2.5,Win32,60
,,,,,,,,,,,,left,0.69442,0,243,243,47,1,döföl,K105,nő,1999.06.22,15,2021-05-14_14h50.07.011,ranlexdec,2020.2.5,Win32,60
,,,,,,,,,,,,right,0.7665,0,244,244,59,1,ómagyar,K105,nő,1999.06.22,15,2021-05-14_14h50.07.011,ranlexdec,2020.2.5,Win32,60
,,,,,,,,,,,,right,0.658455,0,245,245,194,1,végbél,K105,nő,1999.06.22,15,2021-05-14_14h50.07.011,ranlexdec,2020.2.5,Win32,60
,,,,,,,,,,,,left,1.251035,0,246,246,97,1,vésségi,K105,nő,1999.06.22,15,2021-05-14_14h50.07.011,ranlexdec,2020.2.5,Win32,60
,,,,,,,,,,,,right,0.71608,0,247,247,215,1,neoprén,K105,nő,1999.06.22,15,2021-05-14_14h50.07.011,ranlexdec,2020.2.5,Win32,60
,,,,,,,,,,,,right,0.577305,0,248,248,213,1,eszköz,K105,nő,1999.06.22,15,2021-05-14_14h50.07.011,ranlexdec,2020.2.5,Win32,60
,,,,,,,,,,,,right,0.621535,0,249,249,51,1,bajuszfű,K105,nő,1999.06.22,15,2021-05-14_14h50.07.011,ranlexdec,2020.2.5,Win32,60
