ready2_2.keys,ready2_2.rt,ready2.keys,ready2.rt,key_resp.keys,key_resp.rt,key_resp_3.keys,key_resp_3.rt,key_resp_2.keys,key_resp_2.rt,ready3.keys,ready3.rt,resp.keys,resp.rt,withinBlock.thisRepN,withinBlock.thisTrialN,withinBlock.thisN,withinBlock.thisIndex,withinBlock.ran,word,Azonosító,Az Ön neme,Születési éve,Hány évet töltött az iskolapadban (egyetemet is beleértve),date,expName,psychopyVersion,OS,frameRate
right,42.46614,right,9.472565,right,1.540025,left,1.26858,right,2.78468,right,17.072635,left,2.444755,0,0,0,135,1,ion,FWCVT3,Nő,2001,13,2021-05-14_14h01.58.065,ranlexdec,2020.2.5,Win32,60
,,,,,,,,,,,,right,1.61787,0,1,1,239,1,donhuán,FWCVT3,Nő,2001,13,2021-05-14_14h01.58.065,ranlexdec,2020.2.5,Win32,60
,,,,,,,,,,,,left,1.667885,0,2,2,133,1,hübrisz,FWCVT3,Nő,2001,13,2021-05-14_14h01.58.065,ranlexdec,2020.2.5,Win32,60
,,,,,,,,,,,,right,0.70695,0,3,3,124,1,alkalom,FWCVT3,Nő,2001,13,2021-05-14_14h01.58.065,ranlexdec,2020.2.5,Win32,60
,,,,,,,,,,,,right,1.18512,0,4,4,51,1,bajuszfű,FWCVT3,Nő,2001,13,2021-05-14_14h01.58.065,ranlexdec,2020.2.5,Win32,60
,,,,,,,,,,,,left,3.496415,0,5,5,109,1,vényegő,FWCVT3,Nő,2001,13,2021-05-14_14h01.58.065,ranlexdec,2020.2.5,Win32,60
,,,,,,,,,,,,left,3.95037,0,6,6,91,1,tajtásos,FWCVT3,Nő,2001,13,2021-05-14_14h01.58.065,ranlexdec,2020.2.5,Win32,60
,,,,,,,,,,,,right,1.10675,0,7,7,147,1,referál,FWCVT3,Nő,2001,13,2021-05-14_14h01.58.065,ranlexdec,2020.2.5,Win32,60
,,,,,,,,,,,,left,3.145795,0,8,8,103,1,szabotró,FWCVT3,Nő,2001,13,2021-05-14_14h01.58.065,ranlexdec,2020.2.5,Win32,60
,,,,,,,,,,,,right,1.200745,0,9,9,212,1,farkasbab,FWCVT3,Nő,2001,13,2021-05-14_14h01.58.065,ranlexdec,2020.2.5,Win32,60
,,,,,,,,,,,,right,0.798335,0,10,10,214,1,tenger,FWCVT3,Nő,2001,13,2021-05-14_14h01.58.065,ranlexdec,2020.2.5,Win32,60
,,,,,,,,,,,,right,1.553245,0,11,11,44,1,ingváll,FWCVT3,Nő,2001,13,2021-05-14_14h01.58.065,ranlexdec,2020.2.5,Win32,60
,,,,,,,,,,,,right,0.95959,0,12,12,61,1,régész,FWCVT3,Nő,2001,13,2021-05-14_14h01.58.065,ranlexdec,2020.2.5,Win32,60
,,,,,,,,,,,,right,0.88007,0,13,13,227,1,kötődik,FWCVT3,Nő,2001,13,2021-05-14_14h01.58.065,ranlexdec,2020.2.5,Win32,60
,,,,,,,,,,,,left,1.577765,0,14,14,46,1,kurzív,FWCVT3,Nő,2001,13,2021-05-14_14h01.58.065,ranlexdec,2020.2.5,Win32,60
,,,,,,,,,,,,left,3.283635,0,15,15,131,1,vetézmés,FWCVT3,Nő,2001,13,2021-05-14_14h01.58.065,ranlexdec,2020.2.5,Win32,60
,,,,,,,,,,,,right,1.158905,0,16,16,152,1,rakódik,FWCVT3,Nő,2001,13,2021-05-14_14h01.58.065,ranlexdec,2020.2.5,Win32,60
,,,,,,,,,,,,right,1.006405,0,17,17,161,1,példakép,FWCVT3,Nő,2001,13,2021-05-14_14h01.58.065,ranlexdec,2020.2.5,Win32,60
,,,,,,,,,,,,right,6.85002,0,18,18,18,1,csapattest,FWCVT3,Nő,2001,13,2021-05-14_14h01.58.065,ranlexdec,2020.2.5,Win32,60
,,,,,,,,,,,,right,1.05149,0,19,19,179,1,töredék,FWCVT3,Nő,2001,13,2021-05-14_14h01.58.065,ranlexdec,2020.2.5,Win32,60
,,,,,,,,,,,,right,1.08516,0,20,20,129,1,turné,FWCVT3,Nő,2001,13,2021-05-14_14h01.58.065,ranlexdec,2020.2.5,Win32,60
,,,,,,,,,,,,left,1.37493,0,21,21,225,1,bajadér,FWCVT3,Nő,2001,13,2021-05-14_14h01.58.065,ranlexdec,2020.2.5,Win32,60
,,,,,,,,,,,,left,1.853675,0,22,22,217,1,ifjít,FWCVT3,Nő,2001,13,2021-05-14_14h01.58.065,ranlexdec,2020.2.5,Win32,60
,,,,,,,,,,,,right,1.417425,0,23,23,32,1,genom,FWCVT3,Nő,2001,13,2021-05-14_14h01.58.065,ranlexdec,2020.2.5,Win32,60
,,,,,,,,,,,,left,1.217675,0,24,24,224,1,truccol,FWCVT3,Nő,2001,13,2021-05-14_14h01.58.065,ranlexdec,2020.2.5,Win32,60
,,,,,,,,,,,,right,1.467285,0,25,25,64,1,hálózsák,FWCVT3,Nő,2001,13,2021-05-14_14h01.58.065,ranlexdec,2020.2.5,Win32,60
,,,,,,,,,,,,right,0.81305,0,26,26,176,1,bélyeg,FWCVT3,Nő,2001,13,2021-05-14_14h01.58.065,ranlexdec,2020.2.5,Win32,60
,,,,,,,,,,,,left,1.577845,0,27,27,84,1,kúpol,FWCVT3,Nő,2001,13,2021-05-14_14h01.58.065,ranlexdec,2020.2.5,Win32,60
,,,,,,,,,,,,right,0.744885,0,28,28,73,1,olaj,FWCVT3,Nő,2001,13,2021-05-14_14h01.58.065,ranlexdec,2020.2.5,Win32,60
,,,,,,,,,,,,right,0.87776,0,29,29,236,1,csatázik,FWCVT3,Nő,2001,13,2021-05-14_14h01.58.065,ranlexdec,2020.2.5,Win32,60
,,,,,,,,,,,,right,0.86751,0,30,30,25,1,reform,FWCVT3,Nő,2001,13,2021-05-14_14h01.58.065,ranlexdec,2020.2.5,Win32,60
,,,,,,,,,,,,right,0.8032,0,31,31,182,1,nagyszámú,FWCVT3,Nő,2001,13,2021-05-14_14h01.58.065,ranlexdec,2020.2.5,Win32,60
,,,,,,,,,,,,right,1.705935,0,32,32,174,1,cianid,FWCVT3,Nő,2001,13,2021-05-14_14h01.58.065,ranlexdec,2020.2.5,Win32,60
,,,,,,,,,,,,right,0.786575,0,33,33,21,1,heveny,FWCVT3,Nő,2001,13,2021-05-14_14h01.58.065,ranlexdec,2020.2.5,Win32,60
,,,,,,,,,,,,right,1.59174,0,34,34,95,1,skubizik,FWCVT3,Nő,2001,13,2021-05-14_14h01.58.065,ranlexdec,2020.2.5,Win32,60
,,,,,,,,,,,,right,2.606825,0,35,35,128,1,csüggedez,FWCVT3,Nő,2001,13,2021-05-14_14h01.58.065,ranlexdec,2020.2.5,Win32,60
,,,,,,,,,,,,left,1.652335,0,36,36,218,1,tortya,FWCVT3,Nő,2001,13,2021-05-14_14h01.58.065,ranlexdec,2020.2.5,Win32,60
,,,,,,,,,,,,left,1.53983,0,37,37,162,1,nimbus,FWCVT3,Nő,2001,13,2021-05-14_14h01.58.065,ranlexdec,2020.2.5,Win32,60
,,,,,,,,,,,,left,3.2817,0,38,38,70,1,lakotthely,FWCVT3,Nő,2001,13,2021-05-14_14h01.58.065,ranlexdec,2020.2.5,Win32,60
,,,,,,,,,,,,right,1.30291,0,39,39,98,1,mítosz,FWCVT3,Nő,2001,13,2021-05-14_14h01.58.065,ranlexdec,2020.2.5,Win32,60
,,,,,,,,,,,,left,2.27222,0,40,40,192,1,norvend,FWCVT3,Nő,2001,13,2021-05-14_14h01.58.065,ranlexdec,2020.2.5,Win32,60
,,,,,,,,,,,,left,2.955685,0,41,41,4,1,viszonvád,FWCVT3,Nő,2001,13,2021-05-14_14h01.58.065,ranlexdec,2020.2.5,Win32,60
,,,,,,,,,,,,left,2.09033,0,42,42,215,1,neoprén,FWCVT3,Nő,2001,13,2021-05-14_14h01.58.065,ranlexdec,2020.2.5,Win32,60
,,,,,,,,,,,,right,1.084115,0,43,43,99,1,sárgaréz,FWCVT3,Nő,2001,13,2021-05-14_14h01.58.065,ranlexdec,2020.2.5,Win32,60
,,,,,,,,,,,,right,1.019675,0,44,44,19,1,tangózik,FWCVT3,Nő,2001,13,2021-05-14_14h01.58.065,ranlexdec,2020.2.5,Win32,60
,,,,,,,,,,,,right,1.754795,0,45,45,22,1,arzénsav,FWCVT3,Nő,2001,13,2021-05-14_14h01.58.065,ranlexdec,2020.2.5,Win32,60
,,,,,,,,,,,,right,1.400215,0,46,46,148,1,mellényzseb,FWCVT3,Nő,2001,13,2021-05-14_14h01.58.065,ranlexdec,2020.2.5,Win32,60
,,,,,,,,,,,,right,0.739265,0,47,47,221,1,törődik,FWCVT3,Nő,2001,13,2021-05-14_14h01.58.065,ranlexdec,2020.2.5,Win32,60
,,,,,,,,,,,,right,0.75125,0,48,48,7,1,űrlap,FWCVT3,Nő,2001,13,2021-05-14_14h01.58.065,ranlexdec,2020.2.5,Win32,60
,,,,,,,,,,,,right,0.79599,0,49,49,178,1,sziszeg,FWCVT3,Nő,2001,13,2021-05-14_14h01.58.065,ranlexdec,2020.2.5,Win32,60
,,,,,,,,,,,,left,1.367665,0,50,50,96,1,alfél,FWCVT3,Nő,2001,13,2021-05-14_14h01.58.065,ranlexdec,2020.2.5,Win32,60
,,,,,,,,,,,,left,2.95361,0,51,51,142,1,storítő,FWCVT3,Nő,2001,13,2021-05-14_14h01.58.065,ranlexdec,2020.2.5,Win32,60
,,,,,,,,,,,,left,0.931725,0,52,52,203,1,abeti,FWCVT3,Nő,2001,13,2021-05-14_14h01.58.065,ranlexdec,2020.2.5,Win32,60
,,,,,,,,,,,,left,2.48169,0,53,53,125,1,úszamos,FWCVT3,Nő,2001,13,2021-05-14_14h01.58.065,ranlexdec,2020.2.5,Win32,60
,,,,,,,,,,,,right,1.03432,0,54,54,159,1,elegy,FWCVT3,Nő,2001,13,2021-05-14_14h01.58.065,ranlexdec,2020.2.5,Win32,60
,,,,,,,,,,,,right,0.66832,0,55,55,241,1,kárpit,FWCVT3,Nő,2001,13,2021-05-14_14h01.58.065,ranlexdec,2020.2.5,Win32,60
,,,,,,,,,,,,left,1.28401,0,56,56,83,1,vonzum,FWCVT3,Nő,2001,13,2021-05-14_14h01.58.065,ranlexdec,2020.2.5,Win32,60
,,,,,,,,,,,,right,0.729175,0,57,57,126,1,rejtőzik,FWCVT3,Nő,2001,13,2021-05-14_14h01.58.065,ranlexdec,2020.2.5,Win32,60
,,,,,,,,,,,,right,0.767645,0,58,58,209,1,hidegház,FWCVT3,Nő,2001,13,2021-05-14_14h01.58.065,ranlexdec,2020.2.5,Win32,60
,,,,,,,,,,,,right,2.1359,0,59,59,156,1,lazúroz,FWCVT3,Nő,2001,13,2021-05-14_14h01.58.065,ranlexdec,2020.2.5,Win32,60
,,,,,,,,,,,,right,0.578235,0,60,60,169,1,komoly,FWCVT3,Nő,2001,13,2021-05-14_14h01.58.065,ranlexdec,2020.2.5,Win32,60
,,,,,,,,,,,,left,1.568995,0,61,61,167,1,vabank,FWCVT3,Nő,2001,13,2021-05-14_14h01.58.065,ranlexdec,2020.2.5,Win32,60
,,,,,,,,,,,,right,1.09342,0,62,62,190,1,rámáz,FWCVT3,Nő,2001,13,2021-05-14_14h01.58.065,ranlexdec,2020.2.5,Win32,60
,,,,,,,,,,,,left,1.2131,0,63,63,77,1,egant,FWCVT3,Nő,2001,13,2021-05-14_14h01.58.065,ranlexdec,2020.2.5,Win32,60
,,,,,,,,,,,,right,0.67703,0,64,64,86,1,jármű,FWCVT3,Nő,2001,13,2021-05-14_14h01.58.065,ranlexdec,2020.2.5,Win32,60
,,,,,,,,,,,,right,1.40105,0,65,65,226,1,szalicil,FWCVT3,Nő,2001,13,2021-05-14_14h01.58.065,ranlexdec,2020.2.5,Win32,60
,,,,,,,,,,,,right,0.638305,0,66,66,116,1,árus,FWCVT3,Nő,2001,13,2021-05-14_14h01.58.065,ranlexdec,2020.2.5,Win32,60
,,,,,,,,,,,,right,0.93615,0,67,67,175,1,szilikát,FWCVT3,Nő,2001,13,2021-05-14_14h01.58.065,ranlexdec,2020.2.5,Win32,60
,,,,,,,,,,,,right,0.914335,0,68,68,54,1,fürkész,FWCVT3,Nő,2001,13,2021-05-14_14h01.58.065,ranlexdec,2020.2.5,Win32,60
,,,,,,,,,,,,left,1.648265,0,69,69,137,1,aragas,FWCVT3,Nő,2001,13,2021-05-14_14h01.58.065,ranlexdec,2020.2.5,Win32,60
,,,,,,,,,,,,right,0.70242,0,70,70,80,1,darab,FWCVT3,Nő,2001,13,2021-05-14_14h01.58.065,ranlexdec,2020.2.5,Win32,60
,,,,,,,,,,,,right,1.81347,0,71,71,200,1,biliárd,FWCVT3,Nő,2001,13,2021-05-14_14h01.58.065,ranlexdec,2020.2.5,Win32,60
,,,,,,,,,,,,right,1.48025,0,72,72,177,1,pereg,FWCVT3,Nő,2001,13,2021-05-14_14h01.58.065,ranlexdec,2020.2.5,Win32,60
,,,,,,,,,,,,right,1.179565,0,73,73,34,1,csengettyű,FWCVT3,Nő,2001,13,2021-05-14_14h01.58.065,ranlexdec,2020.2.5,Win32,60
,,,,,,,,,,,,right,1.86154,0,74,74,101,1,nukleon,FWCVT3,Nő,2001,13,2021-05-14_14h01.58.065,ranlexdec,2020.2.5,Win32,60
,,,,,,,,,,,,left,1.39213,0,75,75,74,1,püffeszt,FWCVT3,Nő,2001,13,2021-05-14_14h01.58.065,ranlexdec,2020.2.5,Win32,60
,,,,,,,,,,,,left,2.26174,0,76,76,216,1,svábtök,FWCVT3,Nő,2001,13,2021-05-14_14h01.58.065,ranlexdec,2020.2.5,Win32,60
,,,,,,,,,,,,right,0.93118,0,77,77,53,1,puritán,FWCVT3,Nő,2001,13,2021-05-14_14h01.58.065,ranlexdec,2020.2.5,Win32,60
,,,,,,,,,,,,right,1.397695,0,78,78,35,1,türemlik,FWCVT3,Nő,2001,13,2021-05-14_14h01.58.065,ranlexdec,2020.2.5,Win32,60
,,,,,,,,,,,,right,1.296355,0,79,79,105,1,tököl,FWCVT3,Nő,2001,13,2021-05-14_14h01.58.065,ranlexdec,2020.2.5,Win32,60
,,,,,,,,,,,,right,0.618465,0,80,80,55,1,látszik,FWCVT3,Nő,2001,13,2021-05-14_14h01.58.065,ranlexdec,2020.2.5,Win32,60
,,,,,,,,,,,,right,1.62237,0,81,81,115,1,fajansz,FWCVT3,Nő,2001,13,2021-05-14_14h01.58.065,ranlexdec,2020.2.5,Win32,60
,,,,,,,,,,,,left,1.990695,0,82,82,121,1,aggófű,FWCVT3,Nő,2001,13,2021-05-14_14h01.58.065,ranlexdec,2020.2.5,Win32,60
,,,,,,,,,,,,left,1.51915,0,83,83,72,1,mihálóz,FWCVT3,Nő,2001,13,2021-05-14_14h01.58.065,ranlexdec,2020.2.5,Win32,60
,,,,,,,,,,,,right,0.720315,0,84,84,130,1,derít,FWCVT3,Nő,2001,13,2021-05-14_14h01.58.065,ranlexdec,2020.2.5,Win32,60
,,,,,,,,,,,,left,1.477795,0,85,85,119,1,cugehőr,FWCVT3,Nő,2001,13,2021-05-14_14h01.58.065,ranlexdec,2020.2.5,Win32,60
,,,,,,,,,,,,left,1.331425,0,86,86,75,1,karnogó,FWCVT3,Nő,2001,13,2021-05-14_14h01.58.065,ranlexdec,2020.2.5,Win32,60
,,,,,,,,,,,,left,0.965885,0,87,87,117,1,ószeven,FWCVT3,Nő,2001,13,2021-05-14_14h01.58.065,ranlexdec,2020.2.5,Win32,60
,,,,,,,,,,,,left,1.12159,0,88,88,17,1,magmatit,FWCVT3,Nő,2001,13,2021-05-14_14h01.58.065,ranlexdec,2020.2.5,Win32,60
,,,,,,,,,,,,left,1.77886,0,89,89,23,1,szelégül,FWCVT3,Nő,2001,13,2021-05-14_14h01.58.065,ranlexdec,2020.2.5,Win32,60
,,,,,,,,,,,,left,1.12394,0,90,90,141,1,hider,FWCVT3,Nő,2001,13,2021-05-14_14h01.58.065,ranlexdec,2020.2.5,Win32,60
,,,,,,,,,,,,right,1.116985,0,91,91,136,1,rücsök,FWCVT3,Nő,2001,13,2021-05-14_14h01.58.065,ranlexdec,2020.2.5,Win32,60
,,,,,,,,,,,,right,0.95552,0,92,92,68,1,kitin,FWCVT3,Nő,2001,13,2021-05-14_14h01.58.065,ranlexdec,2020.2.5,Win32,60
,,,,,,,,,,,,left,1.902865,0,93,93,223,1,árstop,FWCVT3,Nő,2001,13,2021-05-14_14h01.58.065,ranlexdec,2020.2.5,Win32,60
,,,,,,,,,,,,right,1.053185,0,94,94,228,1,tarol,FWCVT3,Nő,2001,13,2021-05-14_14h01.58.065,ranlexdec,2020.2.5,Win32,60
,,,,,,,,,,,,right,0.78399,0,95,95,31,1,iszlám,FWCVT3,Nő,2001,13,2021-05-14_14h01.58.065,ranlexdec,2020.2.5,Win32,60
,,,,,,,,,,,,right,0.7851,0,96,96,206,1,horizont,FWCVT3,Nő,2001,13,2021-05-14_14h01.58.065,ranlexdec,2020.2.5,Win32,60
,,,,,,,,,,,,left,2.200905,0,97,97,2,1,gyásos,FWCVT3,Nő,2001,13,2021-05-14_14h01.58.065,ranlexdec,2020.2.5,Win32,60
,,,,,,,,,,,,right,1.019755,0,98,98,0,1,irány,FWCVT3,Nő,2001,13,2021-05-14_14h01.58.065,ranlexdec,2020.2.5,Win32,60
,,,,,,,,,,,,right,1.05398,0,99,99,230,1,délceg,FWCVT3,Nő,2001,13,2021-05-14_14h01.58.065,ranlexdec,2020.2.5,Win32,60
,,,,,,,,,,,,right,1.01538,0,100,100,158,1,hidroxid,FWCVT3,Nő,2001,13,2021-05-14_14h01.58.065,ranlexdec,2020.2.5,Win32,60
,,,,,,,,,,,,right,0.83693,0,101,101,140,1,diktátor,FWCVT3,Nő,2001,13,2021-05-14_14h01.58.065,ranlexdec,2020.2.5,Win32,60
,,,,,,,,,,,,right,0.640955,0,102,102,122,1,égitest,FWCVT3,Nő,2001,13,2021-05-14_14h01.58.065,ranlexdec,2020.2.5,Win32,60
,,,,,,,,,,,,right,0.618055,0,103,103,45,1,népszerű,FWCVT3,Nő,2001,13,2021-05-14_14h01.58.065,ranlexdec,2020.2.5,Win32,60
,,,,,,,,,,,,left,1.60352,0,104,104,207,1,diffamál,FWCVT3,Nő,2001,13,2021-05-14_14h01.58.065,ranlexdec,2020.2.5,Win32,60
,,,,,,,,,,,,right,0.800235,0,105,105,33,1,kalcium,FWCVT3,Nő,2001,13,2021-05-14_14h01.58.065,ranlexdec,2020.2.5,Win32,60
,,,,,,,,,,,,left,1.511155,0,106,106,164,1,kurzivál,FWCVT3,Nő,2001,13,2021-05-14_14h01.58.065,ranlexdec,2020.2.5,Win32,60
,,,,,,,,,,,,right,1.032295,0,107,107,248,1,örmény,FWCVT3,Nő,2001,13,2021-05-14_14h01.58.065,ranlexdec,2020.2.5,Win32,60
,,,,,,,,,,,,left,1.1513,0,108,108,197,1,krakéler,FWCVT3,Nő,2001,13,2021-05-14_14h01.58.065,ranlexdec,2020.2.5,Win32,60
,,,,,,,,,,,,right,0.635395,0,109,109,208,1,lélek,FWCVT3,Nő,2001,13,2021-05-14_14h01.58.065,ranlexdec,2020.2.5,Win32,60
,,,,,,,,,,,,left,1.107495,0,110,110,29,1,novagár,FWCVT3,Nő,2001,13,2021-05-14_14h01.58.065,ranlexdec,2020.2.5,Win32,60
,,,,,,,,,,,,right,0.66869,0,111,111,170,1,változik,FWCVT3,Nő,2001,13,2021-05-14_14h01.58.065,ranlexdec,2020.2.5,Win32,60
,,,,,,,,,,,,left,1.136435,0,112,112,11,1,viszkóz,FWCVT3,Nő,2001,13,2021-05-14_14h01.58.065,ranlexdec,2020.2.5,Win32,60
,,,,,,,,,,,,left,1.46737,0,113,113,242,1,rekvizit,FWCVT3,Nő,2001,13,2021-05-14_14h01.58.065,ranlexdec,2020.2.5,Win32,60
,,,,,,,,,,,,right,0.685545,0,114,114,28,1,gazdag,FWCVT3,Nő,2001,13,2021-05-14_14h01.58.065,ranlexdec,2020.2.5,Win32,60
,,,,,,,,,,,,right,1.026815,0,115,115,118,1,libling,FWCVT3,Nő,2001,13,2021-05-14_14h01.58.065,ranlexdec,2020.2.5,Win32,60
,,,,,,,,,,,,left,1.51697,0,116,116,181,1,dohorpák,FWCVT3,Nő,2001,13,2021-05-14_14h01.58.065,ranlexdec,2020.2.5,Win32,60
,,,,,,,,,,,,right,0.974245,0,117,117,187,1,testnedv,FWCVT3,Nő,2001,13,2021-05-14_14h01.58.065,ranlexdec,2020.2.5,Win32,60
,,,,,,,,,,,,right,0.767975,0,118,118,165,1,lépték,FWCVT3,Nő,2001,13,2021-05-14_14h01.58.065,ranlexdec,2020.2.5,Win32,60
,,,,,,,,,,,,right,0.841455,0,119,119,232,1,tropikus,FWCVT3,Nő,2001,13,2021-05-14_14h01.58.065,ranlexdec,2020.2.5,Win32,60
,,,,,,,,,,,,right,1.855745,0,120,120,188,1,sugár,FWCVT3,Nő,2001,13,2021-05-14_14h01.58.065,ranlexdec,2020.2.5,Win32,60
,,,,,,,,,,,,right,3.86976,0,121,121,151,1,komplex,FWCVT3,Nő,2001,13,2021-05-14_14h01.58.065,ranlexdec,2020.2.5,Win32,60
,,,,,,,,,,,,left,2.255895,0,122,122,205,1,mimézis,FWCVT3,Nő,2001,13,2021-05-14_14h01.58.065,ranlexdec,2020.2.5,Win32,60
,,,,,,,,,,,,left,1.20576,0,123,123,139,1,vároló,FWCVT3,Nő,2001,13,2021-05-14_14h01.58.065,ranlexdec,2020.2.5,Win32,60
,,,,,,,,,,,,left,1.58095,0,124,124,1,1,csapdáz,FWCVT3,Nő,2001,13,2021-05-14_14h01.58.065,ranlexdec,2020.2.5,Win32,60
,,,,,,,,,,,,left,1.176235,0,125,125,229,1,lemesség,FWCVT3,Nő,2001,13,2021-05-14_14h01.58.065,ranlexdec,2020.2.5,Win32,60
,,,,,,,,,,,,left,1.64192,0,126,126,155,1,megpadék,FWCVT3,Nő,2001,13,2021-05-14_14h01.58.065,ranlexdec,2020.2.5,Win32,60
,,,,,,,,,,,,right,0.750225,0,127,127,67,1,szegény,FWCVT3,Nő,2001,13,2021-05-14_14h01.58.065,ranlexdec,2020.2.5,Win32,60
,,,,,,,,,,,,left,1.53948,0,128,128,97,1,vésségi,FWCVT3,Nő,2001,13,2021-05-14_14h01.58.065,ranlexdec,2020.2.5,Win32,60
,,,,,,,,,,,,right,1.170015,0,129,129,59,1,ómagyar,FWCVT3,Nő,2001,13,2021-05-14_14h01.58.065,ranlexdec,2020.2.5,Win32,60
,,,,,,,,,,,,right,1.67228,0,130,130,14,1,selypít,FWCVT3,Nő,2001,13,2021-05-14_14h01.58.065,ranlexdec,2020.2.5,Win32,60
,,,,,,,,,,,,right,4.12281,0,131,131,235,1,transzplantál,FWCVT3,Nő,2001,13,2021-05-14_14h01.58.065,ranlexdec,2020.2.5,Win32,60
,,,,,,,,,,,,left,2.13453,0,132,132,3,1,tömzsa,FWCVT3,Nő,2001,13,2021-05-14_14h01.58.065,ranlexdec,2020.2.5,Win32,60
,,,,,,,,,,,,left,1.184265,0,133,133,202,1,abszint,FWCVT3,Nő,2001,13,2021-05-14_14h01.58.065,ranlexdec,2020.2.5,Win32,60
,,,,,,,,,,,,right,1.20045,0,134,134,144,1,rövid,FWCVT3,Nő,2001,13,2021-05-14_14h01.58.065,ranlexdec,2020.2.5,Win32,60
,,,,,,,,,,,,right,1.37052,0,135,135,249,1,kencéz,FWCVT3,Nő,2001,13,2021-05-14_14h01.58.065,ranlexdec,2020.2.5,Win32,60
,,,,,,,,,,,,right,1.68669,0,136,136,238,1,bolgár,FWCVT3,Nő,2001,13,2021-05-14_14h01.58.065,ranlexdec,2020.2.5,Win32,60
,,,,,,,,,,,,left,0.98486,0,137,137,195,1,petél,FWCVT3,Nő,2001,13,2021-05-14_14h01.58.065,ranlexdec,2020.2.5,Win32,60
,,,,,,,,,,,,left,1.753465,0,138,138,87,1,forrpont,FWCVT3,Nő,2001,13,2021-05-14_14h01.58.065,ranlexdec,2020.2.5,Win32,60
,,,,,,,,,,,,right,1.535265,0,139,139,138,1,gyűjtemény,FWCVT3,Nő,2001,13,2021-05-14_14h01.58.065,ranlexdec,2020.2.5,Win32,60
,,,,,,,,,,,,right,1.00679,0,140,140,220,1,csontdarab,FWCVT3,Nő,2001,13,2021-05-14_14h01.58.065,ranlexdec,2020.2.5,Win32,60
,,,,,,,,,,,,left,1.711265,0,141,141,112,1,méhezter,FWCVT3,Nő,2001,13,2021-05-14_14h01.58.065,ranlexdec,2020.2.5,Win32,60
,,,,,,,,,,,,left,1.544945,0,142,142,81,1,takorák,FWCVT3,Nő,2001,13,2021-05-14_14h01.58.065,ranlexdec,2020.2.5,Win32,60
,,,,,,,,,,,,right,1.83459,0,143,143,243,1,dipeptid,FWCVT3,Nő,2001,13,2021-05-14_14h01.58.065,ranlexdec,2020.2.5,Win32,60
,,,,,,,,,,,,right,1.378485,0,144,144,157,1,káder,FWCVT3,Nő,2001,13,2021-05-14_14h01.58.065,ranlexdec,2020.2.5,Win32,60
,,,,,,,,,,,,right,4.01942,0,145,145,37,1,lukaszt,FWCVT3,Nő,2001,13,2021-05-14_14h01.58.065,ranlexdec,2020.2.5,Win32,60
,,,,,,,,,,,,right,1.13407,0,146,146,79,1,extrém,FWCVT3,Nő,2001,13,2021-05-14_14h01.58.065,ranlexdec,2020.2.5,Win32,60
,,,,,,,,,,,,left,0.970895,0,147,147,26,1,aurult,FWCVT3,Nő,2001,13,2021-05-14_14h01.58.065,ranlexdec,2020.2.5,Win32,60
,,,,,,,,,,,,left,1.051935,0,148,148,5,1,retta,FWCVT3,Nő,2001,13,2021-05-14_14h01.58.065,ranlexdec,2020.2.5,Win32,60
,,,,,,,,,,,,left,1.434425,0,149,149,60,1,bárányfark,FWCVT3,Nő,2001,13,2021-05-14_14h01.58.065,ranlexdec,2020.2.5,Win32,60
,,,,,,,,,,,,right,1.53581,0,150,150,90,1,orális,FWCVT3,Nő,2001,13,2021-05-14_14h01.58.065,ranlexdec,2020.2.5,Win32,60
,,,,,,,,,,,,right,1.020865,0,151,151,211,1,tábornagy,FWCVT3,Nő,2001,13,2021-05-14_14h01.58.065,ranlexdec,2020.2.5,Win32,60
,,,,,,,,,,,,left,1.430385,0,152,152,233,1,templomoz,FWCVT3,Nő,2001,13,2021-05-14_14h01.58.065,ranlexdec,2020.2.5,Win32,60
,,,,,,,,,,,,right,1.051335,0,153,153,231,1,igény,FWCVT3,Nő,2001,13,2021-05-14_14h01.58.065,ranlexdec,2020.2.5,Win32,60
,,,,,,,,,,,,right,2.31667,0,154,154,199,1,ború,FWCVT3,Nő,2001,13,2021-05-14_14h01.58.065,ranlexdec,2020.2.5,Win32,60
,,,,,,,,,,,,right,1.31082,0,155,155,100,1,balközép,FWCVT3,Nő,2001,13,2021-05-14_14h01.58.065,ranlexdec,2020.2.5,Win32,60
,,,,,,,,,,,,left,0.96871,0,156,156,102,1,pentez,FWCVT3,Nő,2001,13,2021-05-14_14h01.58.065,ranlexdec,2020.2.5,Win32,60
,,,,,,,,,,,,left,1.40925,0,157,157,120,1,komál,FWCVT3,Nő,2001,13,2021-05-14_14h01.58.065,ranlexdec,2020.2.5,Win32,60
,,,,,,,,,,,,right,1.607745,0,158,158,247,1,ausztrál,FWCVT3,Nő,2001,13,2021-05-14_14h01.58.065,ranlexdec,2020.2.5,Win32,60
,,,,,,,,,,,,right,1.28064,0,159,159,171,1,újgazdag,FWCVT3,Nő,2001,13,2021-05-14_14h01.58.065,ranlexdec,2020.2.5,Win32,60
,,,,,,,,,,,,left,1.43136,0,160,160,180,1,adszorbens,FWCVT3,Nő,2001,13,2021-05-14_14h01.58.065,ranlexdec,2020.2.5,Win32,60
,,,,,,,,,,,,right,1.102435,0,161,161,189,1,konverzál,FWCVT3,Nő,2001,13,2021-05-14_14h01.58.065,ranlexdec,2020.2.5,Win32,60
,,,,,,,,,,,,right,4.107975,0,162,162,185,1,gyülemlik,FWCVT3,Nő,2001,13,2021-05-14_14h01.58.065,ranlexdec,2020.2.5,Win32,60
,,,,,,,,,,,,right,1.036365,0,163,163,210,1,karakter,FWCVT3,Nő,2001,13,2021-05-14_14h01.58.065,ranlexdec,2020.2.5,Win32,60
,,,,,,,,,,,,right,1.41183,0,164,164,222,1,nyersarany,FWCVT3,Nő,2001,13,2021-05-14_14h01.58.065,ranlexdec,2020.2.5,Win32,60
,,,,,,,,,,,,left,1.519205,0,165,165,57,1,lejmol,FWCVT3,Nő,2001,13,2021-05-14_14h01.58.065,ranlexdec,2020.2.5,Win32,60
,,,,,,,,,,,,right,1.471735,0,166,166,56,1,kanalaz,FWCVT3,Nő,2001,13,2021-05-14_14h01.58.065,ranlexdec,2020.2.5,Win32,60
,,,,,,,,,,,,left,1.217815,0,167,167,65,1,infimum,FWCVT3,Nő,2001,13,2021-05-14_14h01.58.065,ranlexdec,2020.2.5,Win32,60
,,,,,,,,,,,,right,1.021435,0,168,168,8,1,kulcscsont,FWCVT3,Nő,2001,13,2021-05-14_14h01.58.065,ranlexdec,2020.2.5,Win32,60
,,,,,,,,,,,,left,0.92587,0,169,169,149,1,anorák,FWCVT3,Nő,2001,13,2021-05-14_14h01.58.065,ranlexdec,2020.2.5,Win32,60
,,,,,,,,,,,,right,1.63473,0,170,170,9,1,hajlik,FWCVT3,Nő,2001,13,2021-05-14_14h01.58.065,ranlexdec,2020.2.5,Win32,60
,,,,,,,,,,,,left,1.14771,0,171,171,52,1,kunyai,FWCVT3,Nő,2001,13,2021-05-14_14h01.58.065,ranlexdec,2020.2.5,Win32,60
,,,,,,,,,,,,right,0.70145,0,172,172,196,1,dolgozik,FWCVT3,Nő,2001,13,2021-05-14_14h01.58.065,ranlexdec,2020.2.5,Win32,60
,,,,,,,,,,,,right,1.0203,0,173,173,48,1,reagál,FWCVT3,Nő,2001,13,2021-05-14_14h01.58.065,ranlexdec,2020.2.5,Win32,60
,,,,,,,,,,,,left,0.932855,0,174,174,234,1,fertilis,FWCVT3,Nő,2001,13,2021-05-14_14h01.58.065,ranlexdec,2020.2.5,Win32,60
,,,,,,,,,,,,left,0.77718,0,175,175,62,1,bizmut,FWCVT3,Nő,2001,13,2021-05-14_14h01.58.065,ranlexdec,2020.2.5,Win32,60
,,,,,,,,,,,,left,1.05485,0,176,176,198,1,lublika,FWCVT3,Nő,2001,13,2021-05-14_14h01.58.065,ranlexdec,2020.2.5,Win32,60
,,,,,,,,,,,,left,1.30728,0,177,177,15,1,pauzál,FWCVT3,Nő,2001,13,2021-05-14_14h01.58.065,ranlexdec,2020.2.5,Win32,60
,,,,,,,,,,,,right,1.770265,0,178,178,111,1,koenzim,FWCVT3,Nő,2001,13,2021-05-14_14h01.58.065,ranlexdec,2020.2.5,Win32,60
,,,,,,,,,,,,right,0.913695,0,179,179,85,1,glükóz,FWCVT3,Nő,2001,13,2021-05-14_14h01.58.065,ranlexdec,2020.2.5,Win32,60
,,,,,,,,,,,,right,1.451755,0,180,180,186,1,piláf,FWCVT3,Nő,2001,13,2021-05-14_14h01.58.065,ranlexdec,2020.2.5,Win32,60
,,,,,,,,,,,,left,3.24711,0,181,181,127,1,rozintem,FWCVT3,Nő,2001,13,2021-05-14_14h01.58.065,ranlexdec,2020.2.5,Win32,60
,,,,,,,,,,,,right,2.810885,0,182,182,146,1,kondenzcsík,FWCVT3,Nő,2001,13,2021-05-14_14h01.58.065,ranlexdec,2020.2.5,Win32,60
,,,,,,,,,,,,left,1.056825,0,183,183,134,1,móringol,FWCVT3,Nő,2001,13,2021-05-14_14h01.58.065,ranlexdec,2020.2.5,Win32,60
,,,,,,,,,,,,left,1.070425,0,184,184,38,1,zomogyi,FWCVT3,Nő,2001,13,2021-05-14_14h01.58.065,ranlexdec,2020.2.5,Win32,60
,,,,,,,,,,,,right,0.86113,0,185,185,12,1,gyapot,FWCVT3,Nő,2001,13,2021-05-14_14h01.58.065,ranlexdec,2020.2.5,Win32,60
,,,,,,,,,,,,right,1.063575,0,186,186,110,1,időszak,FWCVT3,Nő,2001,13,2021-05-14_14h01.58.065,ranlexdec,2020.2.5,Win32,60
,,,,,,,,,,,,right,0.632155,0,187,187,213,1,eszköz,FWCVT3,Nő,2001,13,2021-05-14_14h01.58.065,ranlexdec,2020.2.5,Win32,60
,,,,,,,,,,,,left,1.695005,0,188,188,107,1,kelől,FWCVT3,Nő,2001,13,2021-05-14_14h01.58.065,ranlexdec,2020.2.5,Win32,60
,,,,,,,,,,,,right,0.83071,0,189,189,78,1,törékeny,FWCVT3,Nő,2001,13,2021-05-14_14h01.58.065,ranlexdec,2020.2.5,Win32,60
,,,,,,,,,,,,right,0.76111,0,190,190,154,1,keresztény,FWCVT3,Nő,2001,13,2021-05-14_14h01.58.065,ranlexdec,2020.2.5,Win32,60
,,,,,,,,,,,,right,2.828715,0,191,191,39,1,könnyelmű,FWCVT3,Nő,2001,13,2021-05-14_14h01.58.065,ranlexdec,2020.2.5,Win32,60
,,,,,,,,,,,,left,1.724535,0,192,192,69,1,gerencsér,FWCVT3,Nő,2001,13,2021-05-14_14h01.58.065,ranlexdec,2020.2.5,Win32,60
,,,,,,,,,,,,left,1.47161,0,193,193,36,1,tröshet,FWCVT3,Nő,2001,13,2021-05-14_14h01.58.065,ranlexdec,2020.2.5,Win32,60
,,,,,,,,,,,,left,0.66443,0,194,194,143,1,rojtoz,FWCVT3,Nő,2001,13,2021-05-14_14h01.58.065,ranlexdec,2020.2.5,Win32,60
,,,,,,,,,,,,left,2.388505,0,195,195,27,1,sporthorgász,FWCVT3,Nő,2001,13,2021-05-14_14h01.58.065,ranlexdec,2020.2.5,Win32,60
,,,,,,,,,,,,right,0.87823,0,196,196,201,1,szempont,FWCVT3,Nő,2001,13,2021-05-14_14h01.58.065,ranlexdec,2020.2.5,Win32,60
,,,,,,,,,,,,right,2.634535,0,197,197,30,1,dádá,FWCVT3,Nő,2001,13,2021-05-14_14h01.58.065,ranlexdec,2020.2.5,Win32,60
,,,,,,,,,,,,right,1.597715,0,198,198,245,1,ellenfél,FWCVT3,Nő,2001,13,2021-05-14_14h01.58.065,ranlexdec,2020.2.5,Win32,60
,,,,,,,,,,,,left,1.734635,0,199,199,76,1,jegedény,FWCVT3,Nő,2001,13,2021-05-14_14h01.58.065,ranlexdec,2020.2.5,Win32,60
,,,,,,,,,,,,right,0.81941,0,200,200,246,1,beton,FWCVT3,Nő,2001,13,2021-05-14_14h01.58.065,ranlexdec,2020.2.5,Win32,60
,,,,,,,,,,,,right,1.37844,0,201,201,237,1,forgórész,FWCVT3,Nő,2001,13,2021-05-14_14h01.58.065,ranlexdec,2020.2.5,Win32,60
,,,,,,,,,,,,left,2.227795,0,202,202,71,1,extuál,FWCVT3,Nő,2001,13,2021-05-14_14h01.58.065,ranlexdec,2020.2.5,Win32,60
,,,,,,,,,,,,left,1.66983,0,203,203,108,1,konyrúd,FWCVT3,Nő,2001,13,2021-05-14_14h01.58.065,ranlexdec,2020.2.5,Win32,60
,,,,,,,,,,,,left,1.36404,0,204,204,16,1,cséltás,FWCVT3,Nő,2001,13,2021-05-14_14h01.58.065,ranlexdec,2020.2.5,Win32,60
,,,,,,,,,,,,right,0.83399,0,205,205,58,1,barát,FWCVT3,Nő,2001,13,2021-05-14_14h01.58.065,ranlexdec,2020.2.5,Win32,60
,,,,,,,,,,,,left,2.444365,0,206,206,191,1,hitódó,FWCVT3,Nő,2001,13,2021-05-14_14h01.58.065,ranlexdec,2020.2.5,Win32,60
,,,,,,,,,,,,right,0.88107,0,207,207,88,1,pohár,FWCVT3,Nő,2001,13,2021-05-14_14h01.58.065,ranlexdec,2020.2.5,Win32,60
,,,,,,,,,,,,left,1.88247,0,208,208,42,1,összalaj,FWCVT3,Nő,2001,13,2021-05-14_14h01.58.065,ranlexdec,2020.2.5,Win32,60
,,,,,,,,,,,,left,1.018105,0,209,209,82,1,kvéker,FWCVT3,Nő,2001,13,2021-05-14_14h01.58.065,ranlexdec,2020.2.5,Win32,60
,,,,,,,,,,,,left,1.666735,0,210,210,66,1,parkkói,FWCVT3,Nő,2001,13,2021-05-14_14h01.58.065,ranlexdec,2020.2.5,Win32,60
,,,,,,,,,,,,left,1.233375,0,211,211,204,1,kocskesi,FWCVT3,Nő,2001,13,2021-05-14_14h01.58.065,ranlexdec,2020.2.5,Win32,60
,,,,,,,,,,,,left,1.4633,0,212,212,166,1,retálhit,FWCVT3,Nő,2001,13,2021-05-14_14h01.58.065,ranlexdec,2020.2.5,Win32,60
,,,,,,,,,,,,right,1.06547,0,213,213,184,1,profit,FWCVT3,Nő,2001,13,2021-05-14_14h01.58.065,ranlexdec,2020.2.5,Win32,60
,,,,,,,,,,,,right,0.81257,0,214,214,194,1,végbél,FWCVT3,Nő,2001,13,2021-05-14_14h01.58.065,ranlexdec,2020.2.5,Win32,60
,,,,,,,,,,,,left,1.34656,0,215,215,13,1,törköly,FWCVT3,Nő,2001,13,2021-05-14_14h01.58.065,ranlexdec,2020.2.5,Win32,60
,,,,,,,,,,,,right,1.018505,0,216,216,43,1,közhely,FWCVT3,Nő,2001,13,2021-05-14_14h01.58.065,ranlexdec,2020.2.5,Win32,60
,,,,,,,,,,,,left,0.777995,0,217,217,40,1,diviz,FWCVT3,Nő,2001,13,2021-05-14_14h01.58.065,ranlexdec,2020.2.5,Win32,60
,,,,,,,,,,,,left,1.3649,0,218,218,89,1,szokik,FWCVT3,Nő,2001,13,2021-05-14_14h01.58.065,ranlexdec,2020.2.5,Win32,60
,,,,,,,,,,,,left,1.53848,0,219,219,153,1,kontrapunkt,FWCVT3,Nő,2001,13,2021-05-14_14h01.58.065,ranlexdec,2020.2.5,Win32,60
,,,,,,,,,,,,right,0.915475,0,220,220,132,1,hatalom,FWCVT3,Nő,2001,13,2021-05-14_14h01.58.065,ranlexdec,2020.2.5,Win32,60
,,,,,,,,,,,,left,1.21339,0,221,221,150,1,orront,FWCVT3,Nő,2001,13,2021-05-14_14h01.58.065,ranlexdec,2020.2.5,Win32,60
,,,,,,,,,,,,right,1.61042,0,222,222,240,1,áradmány,FWCVT3,Nő,2001,13,2021-05-14_14h01.58.065,ranlexdec,2020.2.5,Win32,60
,,,,,,,,,,,,right,0.75015,0,223,223,244,1,kislány,FWCVT3,Nő,2001,13,2021-05-14_14h01.58.065,ranlexdec,2020.2.5,Win32,60
,,,,,,,,,,,,right,1.095995,0,224,224,168,1,grafikon,FWCVT3,Nő,2001,13,2021-05-14_14h01.58.065,ranlexdec,2020.2.5,Win32,60
,,,,,,,,,,,,right,1.78916,0,225,225,114,1,tartalom,FWCVT3,Nő,2001,13,2021-05-14_14h01.58.065,ranlexdec,2020.2.5,Win32,60
,,,,,,,,,,,,left,2.75351,0,226,226,6,1,csüggeszt,FWCVT3,Nő,2001,13,2021-05-14_14h01.58.065,ranlexdec,2020.2.5,Win32,60
,,,,,,,,,,,,left,1.483645,0,227,227,63,1,viszkózus,FWCVT3,Nő,2001,13,2021-05-14_14h01.58.065,ranlexdec,2020.2.5,Win32,60
,,,,,,,,,,,,right,0.92344,0,228,228,41,1,nagybeteg,FWCVT3,Nő,2001,13,2021-05-14_14h01.58.065,ranlexdec,2020.2.5,Win32,60
,,,,,,,,,,,,right,1.37264,0,229,229,172,1,kettősfém,FWCVT3,Nő,2001,13,2021-05-14_14h01.58.065,ranlexdec,2020.2.5,Win32,60
,,,,,,,,,,,,right,0.85266,0,230,230,92,1,lágyék,FWCVT3,Nő,2001,13,2021-05-14_14h01.58.065,ranlexdec,2020.2.5,Win32,60
,,,,,,,,,,,,left,1.40474,0,231,231,219,1,szimboló,FWCVT3,Nő,2001,13,2021-05-14_14h01.58.065,ranlexdec,2020.2.5,Win32,60
,,,,,,,,,,,,left,1.06811,0,232,232,49,1,ernyak,FWCVT3,Nő,2001,13,2021-05-14_14h01.58.065,ranlexdec,2020.2.5,Win32,60
,,,,,,,,,,,,right,0.783495,0,233,233,183,1,színpad,FWCVT3,Nő,2001,13,2021-05-14_14h01.58.065,ranlexdec,2020.2.5,Win32,60
,,,,,,,,,,,,left,0.86787,0,234,234,47,1,döföl,FWCVT3,Nő,2001,13,2021-05-14_14h01.58.065,ranlexdec,2020.2.5,Win32,60
,,,,,,,,,,,,left,0.819195,0,235,235,94,1,rotor,FWCVT3,Nő,2001,13,2021-05-14_14h01.58.065,ranlexdec,2020.2.5,Win32,60
,,,,,,,,,,,,left,0.634595,0,236,236,145,1,kurtít,FWCVT3,Nő,2001,13,2021-05-14_14h01.58.065,ranlexdec,2020.2.5,Win32,60
,,,,,,,,,,,,right,1.0899,0,237,237,160,1,százalék,FWCVT3,Nő,2001,13,2021-05-14_14h01.58.065,ranlexdec,2020.2.5,Win32,60
,,,,,,,,,,,,left,1.900475,0,238,238,93,1,kilukát,FWCVT3,Nő,2001,13,2021-05-14_14h01.58.065,ranlexdec,2020.2.5,Win32,60
,,,,,,,,,,,,left,1.675595,0,239,239,123,1,luftballon,FWCVT3,Nő,2001,13,2021-05-14_14h01.58.065,ranlexdec,2020.2.5,Win32,60
,,,,,,,,,,,,left,2.12098,0,240,240,106,1,lalláz,FWCVT3,Nő,2001,13,2021-05-14_14h01.58.065,ranlexdec,2020.2.5,Win32,60
,,,,,,,,,,,,right,1.73914,0,241,241,113,1,piktogram,FWCVT3,Nő,2001,13,2021-05-14_14h01.58.065,ranlexdec,2020.2.5,Win32,60
,,,,,,,,,,,,right,0.87349,0,242,242,10,1,nárcisz,FWCVT3,Nő,2001,13,2021-05-14_14h01.58.065,ranlexdec,2020.2.5,Win32,60
,,,,,,,,,,,,left,1.14114,0,243,243,173,1,glosszáz,FWCVT3,Nő,2001,13,2021-05-14_14h01.58.065,ranlexdec,2020.2.5,Win32,60
,,,,,,,,,,,,right,1.562685,0,244,244,193,1,bacon,FWCVT3,Nő,2001,13,2021-05-14_14h01.58.065,ranlexdec,2020.2.5,Win32,60
,,,,,,,,,,,,left,2.13311,0,245,245,163,1,kollapszus,FWCVT3,Nő,2001,13,2021-05-14_14h01.58.065,ranlexdec,2020.2.5,Win32,60
,,,,,,,,,,,,left,0.66043,0,246,246,24,1,kosi,FWCVT3,Nő,2001,13,2021-05-14_14h01.58.065,ranlexdec,2020.2.5,Win32,60
,,,,,,,,,,,,right,0.844665,0,247,247,20,1,század,FWCVT3,Nő,2001,13,2021-05-14_14h01.58.065,ranlexdec,2020.2.5,Win32,60
,,,,,,,,,,,,right,0.621945,0,248,248,104,1,dolog,FWCVT3,Nő,2001,13,2021-05-14_14h01.58.065,ranlexdec,2020.2.5,Win32,60
,,,,,,,,,,,,left,0.96873,0,249,249,50,1,csenyei,FWCVT3,Nő,2001,13,2021-05-14_14h01.58.065,ranlexdec,2020.2.5,Win32,60
