ready2_2.keys,ready2_2.rt,ready2.keys,ready2.rt,key_resp.keys,key_resp.rt,key_resp_3.keys,key_resp_3.rt,key_resp_2.keys,key_resp_2.rt,ready3.keys,ready3.rt,resp.keys,resp.rt,withinBlock.thisRepN,withinBlock.thisTrialN,withinBlock.thisN,withinBlock.thisIndex,withinBlock.ran,word,Azonosító,Az Ön neme,Születési éve,Hány évet töltött az iskolapadban (egyetemet is beleértve),date,expName,psychopyVersion,OS,frameRate
space,20.55231,space,11.635155,right,1.133405,left,0.766755,right,0.93531,space,8.90047,left,1.755005,0,0,0,81,1,takorák,KT104,nő,2000.02.20.,15,2021-05-13_08h03.42.134,ranlexdec,2020.2.5,Win32,60
,,,,,,,,,,,,left,1.11122,0,1,1,77,1,egant,KT104,nő,2000.02.20.,15,2021-05-13_08h03.42.134,ranlexdec,2020.2.5,Win32,60
,,,,,,,,,,,,left,1.750875,0,2,2,142,1,storítő,KT104,nő,2000.02.20.,15,2021-05-13_08h03.42.134,ranlexdec,2020.2.5,Win32,60
,,,,,,,,,,,,left,2.197185,0,3,3,192,1,norvend,KT104,nő,2000.02.20.,15,2021-05-13_08h03.42.134,ranlexdec,2020.2.5,Win32,60
,,,,,,,,,,,,right,1.524615,0,4,4,18,1,csapattest,KT104,nő,2000.02.20.,15,2021-05-13_08h03.42.134,ranlexdec,2020.2.5,Win32,60
,,,,,,,,,,,,right,1.01033,0,5,5,244,1,kislány,KT104,nő,2000.02.20.,15,2021-05-13_08h03.42.134,ranlexdec,2020.2.5,Win32,60
,,,,,,,,,,,,right,0.612465,0,6,6,104,1,dolog,KT104,nő,2000.02.20.,15,2021-05-13_08h03.42.134,ranlexdec,2020.2.5,Win32,60
,,,,,,,,,,,,left,0.854575,0,7,7,133,1,hübrisz,KT104,nő,2000.02.20.,15,2021-05-13_08h03.42.134,ranlexdec,2020.2.5,Win32,60
,,,,,,,,,,,,right,1.08488,0,8,8,217,1,ifjít,KT104,nő,2000.02.20.,15,2021-05-13_08h03.42.134,ranlexdec,2020.2.5,Win32,60
,,,,,,,,,,,,left,1.059435,0,9,9,190,1,rámáz,KT104,nő,2000.02.20.,15,2021-05-13_08h03.42.134,ranlexdec,2020.2.5,Win32,60
,,,,,,,,,,,,right,0.92652,0,10,10,193,1,bacon,KT104,nő,2000.02.20.,15,2021-05-13_08h03.42.134,ranlexdec,2020.2.5,Win32,60
,,,,,,,,,,,,right,0.84555,0,11,11,227,1,kötődik,KT104,nő,2000.02.20.,15,2021-05-13_08h03.42.134,ranlexdec,2020.2.5,Win32,60
,,,,,,,,,,,,right,0.87958,0,12,12,98,1,mítosz,KT104,nő,2000.02.20.,15,2021-05-13_08h03.42.134,ranlexdec,2020.2.5,Win32,60
,,,,,,,,,,,,right,0.85959,0,13,13,178,1,sziszeg,KT104,nő,2000.02.20.,15,2021-05-13_08h03.42.134,ranlexdec,2020.2.5,Win32,60
,,,,,,,,,,,,right,0.6357,0,14,14,179,1,töredék,KT104,nő,2000.02.20.,15,2021-05-13_08h03.42.134,ranlexdec,2020.2.5,Win32,60
,,,,,,,,,,,,right,1.675735,0,15,15,97,1,vésségi,KT104,nő,2000.02.20.,15,2021-05-13_08h03.42.134,ranlexdec,2020.2.5,Win32,60
,,,,,,,,,,,,left,0.96804,0,16,16,3,1,tömzsa,KT104,nő,2000.02.20.,15,2021-05-13_08h03.42.134,ranlexdec,2020.2.5,Win32,60
,,,,,,,,,,,,right,0.88289,0,17,17,231,1,igény,KT104,nő,2000.02.20.,15,2021-05-13_08h03.42.134,ranlexdec,2020.2.5,Win32,60
,,,,,,,,,,,,right,0.959265,0,18,18,230,1,délceg,KT104,nő,2000.02.20.,15,2021-05-13_08h03.42.134,ranlexdec,2020.2.5,Win32,60
,,,,,,,,,,,,left,1.15753,0,19,19,93,1,kilukát,KT104,nő,2000.02.20.,15,2021-05-13_08h03.42.134,ranlexdec,2020.2.5,Win32,60
,,,,,,,,,,,,left,1.57496,0,20,20,72,1,mihálóz,KT104,nő,2000.02.20.,15,2021-05-13_08h03.42.134,ranlexdec,2020.2.5,Win32,60
,,,,,,,,,,,,right,0.819415,0,21,21,54,1,fürkész,KT104,nő,2000.02.20.,15,2021-05-13_08h03.42.134,ranlexdec,2020.2.5,Win32,60
,,,,,,,,,,,,right,0.699305,0,22,22,170,1,változik,KT104,nő,2000.02.20.,15,2021-05-13_08h03.42.134,ranlexdec,2020.2.5,Win32,60
,,,,,,,,,,,,right,1.80223,0,23,23,30,1,dádá,KT104,nő,2000.02.20.,15,2021-05-13_08h03.42.134,ranlexdec,2020.2.5,Win32,60
,,,,,,,,,,,,left,1.860465,0,24,24,195,1,petél,KT104,nő,2000.02.20.,15,2021-05-13_08h03.42.134,ranlexdec,2020.2.5,Win32,60
,,,,,,,,,,,,left,1.593225,0,25,25,141,1,hider,KT104,nő,2000.02.20.,15,2021-05-13_08h03.42.134,ranlexdec,2020.2.5,Win32,60
,,,,,,,,,,,,right,0.685185,0,26,26,213,1,eszköz,KT104,nő,2000.02.20.,15,2021-05-13_08h03.42.134,ranlexdec,2020.2.5,Win32,60
,,,,,,,,,,,,right,0.75906,0,27,27,126,1,rejtőzik,KT104,nő,2000.02.20.,15,2021-05-13_08h03.42.134,ranlexdec,2020.2.5,Win32,60
,,,,,,,,,,,,right,0.590815,0,28,28,7,1,űrlap,KT104,nő,2000.02.20.,15,2021-05-13_08h03.42.134,ranlexdec,2020.2.5,Win32,60
,,,,,,,,,,,,right,1.071075,0,29,29,100,1,balközép,KT104,nő,2000.02.20.,15,2021-05-13_08h03.42.134,ranlexdec,2020.2.5,Win32,60
,,,,,,,,,,,,left,1.53257,0,30,30,117,1,ószeven,KT104,nő,2000.02.20.,15,2021-05-13_08h03.42.134,ranlexdec,2020.2.5,Win32,60
,,,,,,,,,,,,right,0.647735,0,31,31,34,1,csengettyű,KT104,nő,2000.02.20.,15,2021-05-13_08h03.42.134,ranlexdec,2020.2.5,Win32,60
,,,,,,,,,,,,right,0.64216,0,32,32,79,1,extrém,KT104,nő,2000.02.20.,15,2021-05-13_08h03.42.134,ranlexdec,2020.2.5,Win32,60
,,,,,,,,,,,,right,1.99245,0,33,33,200,1,biliárd,KT104,nő,2000.02.20.,15,2021-05-13_08h03.42.134,ranlexdec,2020.2.5,Win32,60
,,,,,,,,,,,,left,1.849725,0,34,34,205,1,mimézis,KT104,nő,2000.02.20.,15,2021-05-13_08h03.42.134,ranlexdec,2020.2.5,Win32,60
,,,,,,,,,,,,right,0.54526,0,35,35,208,1,lélek,KT104,nő,2000.02.20.,15,2021-05-13_08h03.42.134,ranlexdec,2020.2.5,Win32,60
,,,,,,,,,,,,right,1.425815,0,36,36,232,1,tropikus,KT104,nő,2000.02.20.,15,2021-05-13_08h03.42.134,ranlexdec,2020.2.5,Win32,60
,,,,,,,,,,,,left,2.2497,0,37,37,76,1,jegedény,KT104,nő,2000.02.20.,15,2021-05-13_08h03.42.134,ranlexdec,2020.2.5,Win32,60
,,,,,,,,,,,,right,1.27889,0,38,38,136,1,rücsök,KT104,nő,2000.02.20.,15,2021-05-13_08h03.42.134,ranlexdec,2020.2.5,Win32,60
,,,,,,,,,,,,right,0.684435,0,39,39,124,1,alkalom,KT104,nő,2000.02.20.,15,2021-05-13_08h03.42.134,ranlexdec,2020.2.5,Win32,60
,,,,,,,,,,,,right,1.235875,0,40,40,57,1,lejmol,KT104,nő,2000.02.20.,15,2021-05-13_08h03.42.134,ranlexdec,2020.2.5,Win32,60
,,,,,,,,,,,,right,0.57972,0,41,41,58,1,barát,KT104,nő,2000.02.20.,15,2021-05-13_08h03.42.134,ranlexdec,2020.2.5,Win32,60
,,,,,,,,,,,,left,1.691785,0,42,42,23,1,szelégül,KT104,nő,2000.02.20.,15,2021-05-13_08h03.42.134,ranlexdec,2020.2.5,Win32,60
,,,,,,,,,,,,right,1.0813,0,43,43,13,1,törköly,KT104,nő,2000.02.20.,15,2021-05-13_08h03.42.134,ranlexdec,2020.2.5,Win32,60
,,,,,,,,,,,,left,1.0157,0,44,44,109,1,vényegő,KT104,nő,2000.02.20.,15,2021-05-13_08h03.42.134,ranlexdec,2020.2.5,Win32,60
,,,,,,,,,,,,right,0.947435,0,45,45,185,1,gyülemlik,KT104,nő,2000.02.20.,15,2021-05-13_08h03.42.134,ranlexdec,2020.2.5,Win32,60
,,,,,,,,,,,,right,0.763405,0,46,46,122,1,égitest,KT104,nő,2000.02.20.,15,2021-05-13_08h03.42.134,ranlexdec,2020.2.5,Win32,60
,,,,,,,,,,,,left,1.214425,0,47,47,181,1,dohorpák,KT104,nő,2000.02.20.,15,2021-05-13_08h03.42.134,ranlexdec,2020.2.5,Win32,60
,,,,,,,,,,,,left,1.781255,0,48,48,166,1,retálhit,KT104,nő,2000.02.20.,15,2021-05-13_08h03.42.134,ranlexdec,2020.2.5,Win32,60
,,,,,,,,,,,,right,0.96466,0,49,49,68,1,kitin,KT104,nő,2000.02.20.,15,2021-05-13_08h03.42.134,ranlexdec,2020.2.5,Win32,60
,,,,,,,,,,,,right,0.90901,0,50,50,182,1,nagyszámú,KT104,nő,2000.02.20.,15,2021-05-13_08h03.42.134,ranlexdec,2020.2.5,Win32,60
,,,,,,,,,,,,right,1.03775,0,51,51,152,1,rakódik,KT104,nő,2000.02.20.,15,2021-05-13_08h03.42.134,ranlexdec,2020.2.5,Win32,60
,,,,,,,,,,,,left,1.19269,0,52,52,103,1,szabotró,KT104,nő,2000.02.20.,15,2021-05-13_08h03.42.134,ranlexdec,2020.2.5,Win32,60
,,,,,,,,,,,,right,0.61082,0,53,53,48,1,reagál,KT104,nő,2000.02.20.,15,2021-05-13_08h03.42.134,ranlexdec,2020.2.5,Win32,60
,,,,,,,,,,,,right,1.01846,0,54,54,164,1,kurzivál,KT104,nő,2000.02.20.,15,2021-05-13_08h03.42.134,ranlexdec,2020.2.5,Win32,60
,,,,,,,,,,,,right,0.84355,0,55,55,149,1,anorák,KT104,nő,2000.02.20.,15,2021-05-13_08h03.42.134,ranlexdec,2020.2.5,Win32,60
,,,,,,,,,,,,right,0.96224,0,56,56,222,1,nyersarany,KT104,nő,2000.02.20.,15,2021-05-13_08h03.42.134,ranlexdec,2020.2.5,Win32,60
,,,,,,,,,,,,right,1.800205,0,57,57,215,1,neoprén,KT104,nő,2000.02.20.,15,2021-05-13_08h03.42.134,ranlexdec,2020.2.5,Win32,60
,,,,,,,,,,,,right,0.777605,0,58,58,10,1,nárcisz,KT104,nő,2000.02.20.,15,2021-05-13_08h03.42.134,ranlexdec,2020.2.5,Win32,60
,,,,,,,,,,,,left,1.54337,0,59,59,66,1,parkkói,KT104,nő,2000.02.20.,15,2021-05-13_08h03.42.134,ranlexdec,2020.2.5,Win32,60
,,,,,,,,,,,,left,1.05963,0,60,60,223,1,árstop,KT104,nő,2000.02.20.,15,2021-05-13_08h03.42.134,ranlexdec,2020.2.5,Win32,60
,,,,,,,,,,,,left,1.626455,0,61,61,38,1,zomogyi,KT104,nő,2000.02.20.,15,2021-05-13_08h03.42.134,ranlexdec,2020.2.5,Win32,60
,,,,,,,,,,,,right,0.87071,0,62,62,28,1,gazdag,KT104,nő,2000.02.20.,15,2021-05-13_08h03.42.134,ranlexdec,2020.2.5,Win32,60
,,,,,,,,,,,,left,1.215475,0,63,63,203,1,abeti,KT104,nő,2000.02.20.,15,2021-05-13_08h03.42.134,ranlexdec,2020.2.5,Win32,60
,,,,,,,,,,,,left,1.228335,0,64,64,71,1,extuál,KT104,nő,2000.02.20.,15,2021-05-13_08h03.42.134,ranlexdec,2020.2.5,Win32,60
,,,,,,,,,,,,left,1.529615,0,65,65,155,1,megpadék,KT104,nő,2000.02.20.,15,2021-05-13_08h03.42.134,ranlexdec,2020.2.5,Win32,60
,,,,,,,,,,,,right,1.249395,0,66,66,87,1,forrpont,KT104,nő,2000.02.20.,15,2021-05-13_08h03.42.134,ranlexdec,2020.2.5,Win32,60
,,,,,,,,,,,,right,0.687985,0,67,67,209,1,hidegház,KT104,nő,2000.02.20.,15,2021-05-13_08h03.42.134,ranlexdec,2020.2.5,Win32,60
,,,,,,,,,,,,right,0.969625,0,68,68,184,1,profit,KT104,nő,2000.02.20.,15,2021-05-13_08h03.42.134,ranlexdec,2020.2.5,Win32,60
,,,,,,,,,,,,left,1.110815,0,69,69,49,1,ernyak,KT104,nő,2000.02.20.,15,2021-05-13_08h03.42.134,ranlexdec,2020.2.5,Win32,60
,,,,,,,,,,,,left,1.337385,0,70,70,207,1,diffamál,KT104,nő,2000.02.20.,15,2021-05-13_08h03.42.134,ranlexdec,2020.2.5,Win32,60
,,,,,,,,,,,,left,1.57489,0,71,71,75,1,karnogó,KT104,nő,2000.02.20.,15,2021-05-13_08h03.42.134,ranlexdec,2020.2.5,Win32,60
,,,,,,,,,,,,left,1.053775,0,72,72,234,1,fertilis,KT104,nő,2000.02.20.,15,2021-05-13_08h03.42.134,ranlexdec,2020.2.5,Win32,60
,,,,,,,,,,,,right,1.04391,0,73,73,63,1,viszkózus,KT104,nő,2000.02.20.,15,2021-05-13_08h03.42.134,ranlexdec,2020.2.5,Win32,60
,,,,,,,,,,,,right,1.32957,0,74,74,216,1,svábtök,KT104,nő,2000.02.20.,15,2021-05-13_08h03.42.134,ranlexdec,2020.2.5,Win32,60
,,,,,,,,,,,,right,1.37858,0,75,75,106,1,lalláz,KT104,nő,2000.02.20.,15,2021-05-13_08h03.42.134,ranlexdec,2020.2.5,Win32,60
,,,,,,,,,,,,left,2.31746,0,76,76,237,1,forgórész,KT104,nő,2000.02.20.,15,2021-05-13_08h03.42.134,ranlexdec,2020.2.5,Win32,60
,,,,,,,,,,,,left,1.58267,0,77,77,24,1,kosi,KT104,nő,2000.02.20.,15,2021-05-13_08h03.42.134,ranlexdec,2020.2.5,Win32,60
,,,,,,,,,,,,left,1.25041,0,78,78,204,1,kocskesi,KT104,nő,2000.02.20.,15,2021-05-13_08h03.42.134,ranlexdec,2020.2.5,Win32,60
,,,,,,,,,,,,left,1.097605,0,79,79,180,1,adszorbens,KT104,nő,2000.02.20.,15,2021-05-13_08h03.42.134,ranlexdec,2020.2.5,Win32,60
,,,,,,,,,,,,right,0.793745,0,80,80,86,1,jármű,KT104,nő,2000.02.20.,15,2021-05-13_08h03.42.134,ranlexdec,2020.2.5,Win32,60
,,,,,,,,,,,,right,0.768765,0,81,81,165,1,lépték,KT104,nő,2000.02.20.,15,2021-05-13_08h03.42.134,ranlexdec,2020.2.5,Win32,60
,,,,,,,,,,,,right,0.89249,0,82,82,70,1,lakotthely,KT104,nő,2000.02.20.,15,2021-05-13_08h03.42.134,ranlexdec,2020.2.5,Win32,60
,,,,,,,,,,,,right,0.809675,0,83,83,88,1,pohár,KT104,nő,2000.02.20.,15,2021-05-13_08h03.42.134,ranlexdec,2020.2.5,Win32,60
,,,,,,,,,,,,right,1.012005,0,84,84,27,1,sporthorgász,KT104,nő,2000.02.20.,15,2021-05-13_08h03.42.134,ranlexdec,2020.2.5,Win32,60
,,,,,,,,,,,,left,1.36272,0,85,85,127,1,rozintem,KT104,nő,2000.02.20.,15,2021-05-13_08h03.42.134,ranlexdec,2020.2.5,Win32,60
,,,,,,,,,,,,right,0.881135,0,86,86,74,1,püffeszt,KT104,nő,2000.02.20.,15,2021-05-13_08h03.42.134,ranlexdec,2020.2.5,Win32,60
,,,,,,,,,,,,right,1.135555,0,87,87,111,1,koenzim,KT104,nő,2000.02.20.,15,2021-05-13_08h03.42.134,ranlexdec,2020.2.5,Win32,60
,,,,,,,,,,,,right,1.13546,0,88,88,174,1,cianid,KT104,nő,2000.02.20.,15,2021-05-13_08h03.42.134,ranlexdec,2020.2.5,Win32,60
,,,,,,,,,,,,right,0.68954,0,89,89,12,1,gyapot,KT104,nő,2000.02.20.,15,2021-05-13_08h03.42.134,ranlexdec,2020.2.5,Win32,60
,,,,,,,,,,,,right,1.283875,0,90,90,96,1,alfél,KT104,nő,2000.02.20.,15,2021-05-13_08h03.42.134,ranlexdec,2020.2.5,Win32,60
,,,,,,,,,,,,right,1.037355,0,91,91,53,1,puritán,KT104,nő,2000.02.20.,15,2021-05-13_08h03.42.134,ranlexdec,2020.2.5,Win32,60
,,,,,,,,,,,,right,0.78557,0,92,92,241,1,kárpit,KT104,nő,2000.02.20.,15,2021-05-13_08h03.42.134,ranlexdec,2020.2.5,Win32,60
,,,,,,,,,,,,left,1.048005,0,93,93,82,1,kvéker,KT104,nő,2000.02.20.,15,2021-05-13_08h03.42.134,ranlexdec,2020.2.5,Win32,60
,,,,,,,,,,,,right,1.25895,0,94,94,84,1,kúpol,KT104,nő,2000.02.20.,15,2021-05-13_08h03.42.134,ranlexdec,2020.2.5,Win32,60
,,,,,,,,,,,,right,0.718275,0,95,95,154,1,keresztény,KT104,nő,2000.02.20.,15,2021-05-13_08h03.42.134,ranlexdec,2020.2.5,Win32,60
,,,,,,,,,,,,left,1.07199,0,96,96,134,1,móringol,KT104,nő,2000.02.20.,15,2021-05-13_08h03.42.134,ranlexdec,2020.2.5,Win32,60
,,,,,,,,,,,,right,1.526435,0,97,97,89,1,szokik,KT104,nő,2000.02.20.,15,2021-05-13_08h03.42.134,ranlexdec,2020.2.5,Win32,60
,,,,,,,,,,,,left,1.7282,0,98,98,2,1,gyásos,KT104,nő,2000.02.20.,15,2021-05-13_08h03.42.134,ranlexdec,2020.2.5,Win32,60
,,,,,,,,,,,,right,2.381705,0,99,99,238,1,bolgár,KT104,nő,2000.02.20.,15,2021-05-13_08h03.42.134,ranlexdec,2020.2.5,Win32,60
,,,,,,,,,,,,right,0.90196,0,100,100,199,1,ború,KT104,nő,2000.02.20.,15,2021-05-13_08h03.42.134,ranlexdec,2020.2.5,Win32,60
,,,,,,,,,,,,right,1.094725,0,101,101,146,1,kondenzcsík,KT104,nő,2000.02.20.,15,2021-05-13_08h03.42.134,ranlexdec,2020.2.5,Win32,60
,,,,,,,,,,,,right,0.92779,0,102,102,159,1,elegy,KT104,nő,2000.02.20.,15,2021-05-13_08h03.42.134,ranlexdec,2020.2.5,Win32,60
,,,,,,,,,,,,right,0.99922,0,103,103,11,1,viszkóz,KT104,nő,2000.02.20.,15,2021-05-13_08h03.42.134,ranlexdec,2020.2.5,Win32,60
,,,,,,,,,,,,right,0.771815,0,104,104,196,1,dolgozik,KT104,nő,2000.02.20.,15,2021-05-13_08h03.42.134,ranlexdec,2020.2.5,Win32,60
,,,,,,,,,,,,right,0.99669,0,105,105,162,1,nimbus,KT104,nő,2000.02.20.,15,2021-05-13_08h03.42.134,ranlexdec,2020.2.5,Win32,60
,,,,,,,,,,,,right,0.55021,0,106,106,55,1,látszik,KT104,nő,2000.02.20.,15,2021-05-13_08h03.42.134,ranlexdec,2020.2.5,Win32,60
,,,,,,,,,,,,left,1.10669,0,107,107,102,1,pentez,KT104,nő,2000.02.20.,15,2021-05-13_08h03.42.134,ranlexdec,2020.2.5,Win32,60
,,,,,,,,,,,,right,2.24047,0,108,108,150,1,orront,KT104,nő,2000.02.20.,15,2021-05-13_08h03.42.134,ranlexdec,2020.2.5,Win32,60
,,,,,,,,,,,,right,1.06127,0,109,109,115,1,fajansz,KT104,nő,2000.02.20.,15,2021-05-13_08h03.42.134,ranlexdec,2020.2.5,Win32,60
,,,,,,,,,,,,right,0.58205,0,110,110,80,1,darab,KT104,nő,2000.02.20.,15,2021-05-13_08h03.42.134,ranlexdec,2020.2.5,Win32,60
,,,,,,,,,,,,left,1.56139,0,111,111,219,1,szimboló,KT104,nő,2000.02.20.,15,2021-05-13_08h03.42.134,ranlexdec,2020.2.5,Win32,60
,,,,,,,,,,,,right,1.26468,0,112,112,235,1,transzplantál,KT104,nő,2000.02.20.,15,2021-05-13_08h03.42.134,ranlexdec,2020.2.5,Win32,60
,,,,,,,,,,,,right,0.666345,0,113,113,214,1,tenger,KT104,nő,2000.02.20.,15,2021-05-13_08h03.42.134,ranlexdec,2020.2.5,Win32,60
,,,,,,,,,,,,right,0.60692,0,114,114,8,1,kulcscsont,KT104,nő,2000.02.20.,15,2021-05-13_08h03.42.134,ranlexdec,2020.2.5,Win32,60
,,,,,,,,,,,,right,1.01264,0,115,115,44,1,ingváll,KT104,nő,2000.02.20.,15,2021-05-13_08h03.42.134,ranlexdec,2020.2.5,Win32,60
,,,,,,,,,,,,right,1.487165,0,116,116,240,1,áradmány,KT104,nő,2000.02.20.,15,2021-05-13_08h03.42.134,ranlexdec,2020.2.5,Win32,60
,,,,,,,,,,,,right,1.114015,0,117,117,225,1,bajadér,KT104,nő,2000.02.20.,15,2021-05-13_08h03.42.134,ranlexdec,2020.2.5,Win32,60
,,,,,,,,,,,,right,0.84399,0,118,118,19,1,tangózik,KT104,nő,2000.02.20.,15,2021-05-13_08h03.42.134,ranlexdec,2020.2.5,Win32,60
,,,,,,,,,,,,left,1.1585,0,119,119,16,1,cséltás,KT104,nő,2000.02.20.,15,2021-05-13_08h03.42.134,ranlexdec,2020.2.5,Win32,60
,,,,,,,,,,,,right,1.492075,0,120,120,17,1,magmatit,KT104,nő,2000.02.20.,15,2021-05-13_08h03.42.134,ranlexdec,2020.2.5,Win32,60
,,,,,,,,,,,,right,0.738105,0,121,121,129,1,turné,KT104,nő,2000.02.20.,15,2021-05-13_08h03.42.134,ranlexdec,2020.2.5,Win32,60
,,,,,,,,,,,,left,1.539605,0,122,122,131,1,vetézmés,KT104,nő,2000.02.20.,15,2021-05-13_08h03.42.134,ranlexdec,2020.2.5,Win32,60
,,,,,,,,,,,,right,0.728245,0,123,123,233,1,templomoz,KT104,nő,2000.02.20.,15,2021-05-13_08h03.42.134,ranlexdec,2020.2.5,Win32,60
,,,,,,,,,,,,left,1.78035,0,124,124,121,1,aggófű,KT104,nő,2000.02.20.,15,2021-05-13_08h03.42.134,ranlexdec,2020.2.5,Win32,60
,,,,,,,,,,,,right,1.96041,0,125,125,160,1,százalék,KT104,nő,2000.02.20.,15,2021-05-13_08h03.42.134,ranlexdec,2020.2.5,Win32,60
,,,,,,,,,,,,right,0.73686,0,126,126,158,1,hidroxid,KT104,nő,2000.02.20.,15,2021-05-13_08h03.42.134,ranlexdec,2020.2.5,Win32,60
,,,,,,,,,,,,left,0.930115,0,127,127,52,1,kunyai,KT104,nő,2000.02.20.,15,2021-05-13_08h03.42.134,ranlexdec,2020.2.5,Win32,60
,,,,,,,,,,,,right,0.833375,0,128,128,39,1,könnyelmű,KT104,nő,2000.02.20.,15,2021-05-13_08h03.42.134,ranlexdec,2020.2.5,Win32,60
,,,,,,,,,,,,left,0.865245,0,129,129,5,1,retta,KT104,nő,2000.02.20.,15,2021-05-13_08h03.42.134,ranlexdec,2020.2.5,Win32,60
,,,,,,,,,,,,right,0.84573,0,130,130,123,1,luftballon,KT104,nő,2000.02.20.,15,2021-05-13_08h03.42.134,ranlexdec,2020.2.5,Win32,60
,,,,,,,,,,,,left,1.550915,0,131,131,4,1,viszonvád,KT104,nő,2000.02.20.,15,2021-05-13_08h03.42.134,ranlexdec,2020.2.5,Win32,60
,,,,,,,,,,,,right,0.78462,0,132,132,56,1,kanalaz,KT104,nő,2000.02.20.,15,2021-05-13_08h03.42.134,ranlexdec,2020.2.5,Win32,60
,,,,,,,,,,,,right,0.782465,0,133,133,64,1,hálózsák,KT104,nő,2000.02.20.,15,2021-05-13_08h03.42.134,ranlexdec,2020.2.5,Win32,60
,,,,,,,,,,,,right,0.966735,0,134,134,148,1,mellényzseb,KT104,nő,2000.02.20.,15,2021-05-13_08h03.42.134,ranlexdec,2020.2.5,Win32,60
,,,,,,,,,,,,right,1.21583,0,135,135,157,1,káder,KT104,nő,2000.02.20.,15,2021-05-13_08h03.42.134,ranlexdec,2020.2.5,Win32,60
,,,,,,,,,,,,right,0.72745,0,136,136,31,1,iszlám,KT104,nő,2000.02.20.,15,2021-05-13_08h03.42.134,ranlexdec,2020.2.5,Win32,60
,,,,,,,,,,,,right,1.22873,0,137,137,1,1,csapdáz,KT104,nő,2000.02.20.,15,2021-05-13_08h03.42.134,ranlexdec,2020.2.5,Win32,60
,,,,,,,,,,,,left,1.06656,0,138,138,83,1,vonzum,KT104,nő,2000.02.20.,15,2021-05-13_08h03.42.134,ranlexdec,2020.2.5,Win32,60
,,,,,,,,,,,,left,1.081445,0,139,139,167,1,vabank,KT104,nő,2000.02.20.,15,2021-05-13_08h03.42.134,ranlexdec,2020.2.5,Win32,60
,,,,,,,,,,,,left,1.18335,0,140,140,40,1,diviz,KT104,nő,2000.02.20.,15,2021-05-13_08h03.42.134,ranlexdec,2020.2.5,Win32,60
,,,,,,,,,,,,right,0.6876,0,141,141,69,1,gerencsér,KT104,nő,2000.02.20.,15,2021-05-13_08h03.42.134,ranlexdec,2020.2.5,Win32,60
,,,,,,,,,,,,right,1.01755,0,142,142,50,1,csenyei,KT104,nő,2000.02.20.,15,2021-05-13_08h03.42.134,ranlexdec,2020.2.5,Win32,60
,,,,,,,,,,,,right,0.744295,0,143,143,221,1,törődik,KT104,nő,2000.02.20.,15,2021-05-13_08h03.42.134,ranlexdec,2020.2.5,Win32,60
,,,,,,,,,,,,left,0.947695,0,144,144,26,1,aurult,KT104,nő,2000.02.20.,15,2021-05-13_08h03.42.134,ranlexdec,2020.2.5,Win32,60
,,,,,,,,,,,,right,0.859915,0,145,145,43,1,közhely,KT104,nő,2000.02.20.,15,2021-05-13_08h03.42.134,ranlexdec,2020.2.5,Win32,60
,,,,,,,,,,,,right,0.619075,0,146,146,144,1,rövid,KT104,nő,2000.02.20.,15,2021-05-13_08h03.42.134,ranlexdec,2020.2.5,Win32,60
,,,,,,,,,,,,right,0.567575,0,147,147,41,1,nagybeteg,KT104,nő,2000.02.20.,15,2021-05-13_08h03.42.134,ranlexdec,2020.2.5,Win32,60
,,,,,,,,,,,,left,4.04765,0,148,148,218,1,tortya,KT104,nő,2000.02.20.,15,2021-05-13_08h03.42.134,ranlexdec,2020.2.5,Win32,60
,,,,,,,,,,,,right,2.396625,0,149,149,248,1,örmény,KT104,nő,2000.02.20.,15,2021-05-13_08h03.42.134,ranlexdec,2020.2.5,Win32,60
,,,,,,,,,,,,left,2.01999,0,150,150,243,1,dipeptid,KT104,nő,2000.02.20.,15,2021-05-13_08h03.42.134,ranlexdec,2020.2.5,Win32,60
,,,,,,,,,,,,right,1.009695,0,151,151,0,1,irány,KT104,nő,2000.02.20.,15,2021-05-13_08h03.42.134,ranlexdec,2020.2.5,Win32,60
,,,,,,,,,,,,left,1.552365,0,152,152,62,1,bizmut,KT104,nő,2000.02.20.,15,2021-05-13_08h03.42.134,ranlexdec,2020.2.5,Win32,60
,,,,,,,,,,,,right,0.89839,0,153,153,202,1,abszint,KT104,nő,2000.02.20.,15,2021-05-13_08h03.42.134,ranlexdec,2020.2.5,Win32,60
,,,,,,,,,,,,right,0.683275,0,154,154,9,1,hajlik,KT104,nő,2000.02.20.,15,2021-05-13_08h03.42.134,ranlexdec,2020.2.5,Win32,60
,,,,,,,,,,,,right,0.95522,0,155,155,189,1,konverzál,KT104,nő,2000.02.20.,15,2021-05-13_08h03.42.134,ranlexdec,2020.2.5,Win32,60
,,,,,,,,,,,,right,0.56437,0,156,156,201,1,szempont,KT104,nő,2000.02.20.,15,2021-05-13_08h03.42.134,ranlexdec,2020.2.5,Win32,60
,,,,,,,,,,,,right,0.50124,0,157,157,67,1,szegény,KT104,nő,2000.02.20.,15,2021-05-13_08h03.42.134,ranlexdec,2020.2.5,Win32,60
,,,,,,,,,,,,left,0.97209,0,158,158,137,1,aragas,KT104,nő,2000.02.20.,15,2021-05-13_08h03.42.134,ranlexdec,2020.2.5,Win32,60
,,,,,,,,,,,,right,1.27655,0,159,159,95,1,skubizik,KT104,nő,2000.02.20.,15,2021-05-13_08h03.42.134,ranlexdec,2020.2.5,Win32,60
,,,,,,,,,,,,right,1.710545,0,160,160,212,1,farkasbab,KT104,nő,2000.02.20.,15,2021-05-13_08h03.42.134,ranlexdec,2020.2.5,Win32,60
,,,,,,,,,,,,right,0.709675,0,161,161,188,1,sugár,KT104,nő,2000.02.20.,15,2021-05-13_08h03.42.134,ranlexdec,2020.2.5,Win32,60
,,,,,,,,,,,,right,1.098535,0,162,162,226,1,szalicil,KT104,nő,2000.02.20.,15,2021-05-13_08h03.42.134,ranlexdec,2020.2.5,Win32,60
,,,,,,,,,,,,right,0.892475,0,163,163,172,1,kettősfém,KT104,nő,2000.02.20.,15,2021-05-13_08h03.42.134,ranlexdec,2020.2.5,Win32,60
,,,,,,,,,,,,right,1.37092,0,164,164,194,1,végbél,KT104,nő,2000.02.20.,15,2021-05-13_08h03.42.134,ranlexdec,2020.2.5,Win32,60
,,,,,,,,,,,,right,0.7808,0,165,165,92,1,lágyék,KT104,nő,2000.02.20.,15,2021-05-13_08h03.42.134,ranlexdec,2020.2.5,Win32,60
,,,,,,,,,,,,right,0.85112,0,166,166,206,1,horizont,KT104,nő,2000.02.20.,15,2021-05-13_08h03.42.134,ranlexdec,2020.2.5,Win32,60
,,,,,,,,,,,,right,1.22753,0,167,167,175,1,szilikát,KT104,nő,2000.02.20.,15,2021-05-13_08h03.42.134,ranlexdec,2020.2.5,Win32,60
,,,,,,,,,,,,right,1.433795,0,168,168,51,1,bajuszfű,KT104,nő,2000.02.20.,15,2021-05-13_08h03.42.134,ranlexdec,2020.2.5,Win32,60
,,,,,,,,,,,,right,0.745415,0,169,169,143,1,rojtoz,KT104,nő,2000.02.20.,15,2021-05-13_08h03.42.134,ranlexdec,2020.2.5,Win32,60
,,,,,,,,,,,,right,0.864215,0,170,170,61,1,régész,KT104,nő,2000.02.20.,15,2021-05-13_08h03.42.134,ranlexdec,2020.2.5,Win32,60
,,,,,,,,,,,,right,0.661695,0,171,171,116,1,árus,KT104,nő,2000.02.20.,15,2021-05-13_08h03.42.134,ranlexdec,2020.2.5,Win32,60
,,,,,,,,,,,,right,0.66509,0,172,172,228,1,tarol,KT104,nő,2000.02.20.,15,2021-05-13_08h03.42.134,ranlexdec,2020.2.5,Win32,60
,,,,,,,,,,,,right,1.032465,0,173,173,110,1,időszak,KT104,nő,2000.02.20.,15,2021-05-13_08h03.42.134,ranlexdec,2020.2.5,Win32,60
,,,,,,,,,,,,right,0.483685,0,174,174,132,1,hatalom,KT104,nő,2000.02.20.,15,2021-05-13_08h03.42.134,ranlexdec,2020.2.5,Win32,60
,,,,,,,,,,,,left,1.61674,0,175,175,47,1,döföl,KT104,nő,2000.02.20.,15,2021-05-13_08h03.42.134,ranlexdec,2020.2.5,Win32,60
,,,,,,,,,,,,right,0.64417,0,176,176,176,1,bélyeg,KT104,nő,2000.02.20.,15,2021-05-13_08h03.42.134,ranlexdec,2020.2.5,Win32,60
,,,,,,,,,,,,right,0.882825,0,177,177,245,1,ellenfél,KT104,nő,2000.02.20.,15,2021-05-13_08h03.42.134,ranlexdec,2020.2.5,Win32,60
,,,,,,,,,,,,right,0.552,0,178,178,120,1,komál,KT104,nő,2000.02.20.,15,2021-05-13_08h03.42.134,ranlexdec,2020.2.5,Win32,60
,,,,,,,,,,,,right,0.729375,0,179,179,187,1,testnedv,KT104,nő,2000.02.20.,15,2021-05-13_08h03.42.134,ranlexdec,2020.2.5,Win32,60
,,,,,,,,,,,,left,1.12703,0,180,180,224,1,truccol,KT104,nő,2000.02.20.,15,2021-05-13_08h03.42.134,ranlexdec,2020.2.5,Win32,60
,,,,,,,,,,,,right,1.12737,0,181,181,211,1,tábornagy,KT104,nő,2000.02.20.,15,2021-05-13_08h03.42.134,ranlexdec,2020.2.5,Win32,60
,,,,,,,,,,,,left,0.975705,0,182,182,46,1,kurzív,KT104,nő,2000.02.20.,15,2021-05-13_08h03.42.134,ranlexdec,2020.2.5,Win32,60
,,,,,,,,,,,,right,0.776435,0,183,183,73,1,olaj,KT104,nő,2000.02.20.,15,2021-05-13_08h03.42.134,ranlexdec,2020.2.5,Win32,60
,,,,,,,,,,,,right,0.6771,0,184,184,108,1,konyrúd,KT104,nő,2000.02.20.,15,2021-05-13_08h03.42.134,ranlexdec,2020.2.5,Win32,60
,,,,,,,,,,,,right,1.984785,0,185,185,239,1,donhuán,KT104,nő,2000.02.20.,15,2021-05-13_08h03.42.134,ranlexdec,2020.2.5,Win32,60
,,,,,,,,,,,,left,2.965005,0,186,186,229,1,lemesség,KT104,nő,2000.02.20.,15,2021-05-13_08h03.42.134,ranlexdec,2020.2.5,Win32,60
,,,,,,,,,,,,left,3.46498,0,187,187,119,1,cugehőr,KT104,nő,2000.02.20.,15,2021-05-13_08h03.42.134,ranlexdec,2020.2.5,Win32,60
,,,,,,,,,,,,left,1.582125,0,188,188,32,1,genom,KT104,nő,2000.02.20.,15,2021-05-13_08h03.42.134,ranlexdec,2020.2.5,Win32,60
,,,,,,,,,,,,right,0.944955,0,189,189,220,1,csontdarab,KT104,nő,2000.02.20.,15,2021-05-13_08h03.42.134,ranlexdec,2020.2.5,Win32,60
,,,,,,,,,,,,right,0.997625,0,190,190,156,1,lazúroz,KT104,nő,2000.02.20.,15,2021-05-13_08h03.42.134,ranlexdec,2020.2.5,Win32,60
,,,,,,,,,,,,right,0.93718,0,191,191,101,1,nukleon,KT104,nő,2000.02.20.,15,2021-05-13_08h03.42.134,ranlexdec,2020.2.5,Win32,60
,,,,,,,,,,,,left,1.762625,0,192,192,242,1,rekvizit,KT104,nő,2000.02.20.,15,2021-05-13_08h03.42.134,ranlexdec,2020.2.5,Win32,60
,,,,,,,,,,,,right,0.61135,0,193,193,138,1,gyűjtemény,KT104,nő,2000.02.20.,15,2021-05-13_08h03.42.134,ranlexdec,2020.2.5,Win32,60
,,,,,,,,,,,,right,0.78549,0,194,194,210,1,karakter,KT104,nő,2000.02.20.,15,2021-05-13_08h03.42.134,ranlexdec,2020.2.5,Win32,60
,,,,,,,,,,,,left,2.15991,0,195,195,118,1,libling,KT104,nő,2000.02.20.,15,2021-05-13_08h03.42.134,ranlexdec,2020.2.5,Win32,60
,,,,,,,,,,,,right,1.309665,0,196,196,22,1,arzénsav,KT104,nő,2000.02.20.,15,2021-05-13_08h03.42.134,ranlexdec,2020.2.5,Win32,60
,,,,,,,,,,,,right,0.66933,0,197,197,169,1,komoly,KT104,nő,2000.02.20.,15,2021-05-13_08h03.42.134,ranlexdec,2020.2.5,Win32,60
,,,,,,,,,,,,right,0.866295,0,198,198,33,1,kalcium,KT104,nő,2000.02.20.,15,2021-05-13_08h03.42.134,ranlexdec,2020.2.5,Win32,60
,,,,,,,,,,,,right,0.94897,0,199,199,246,1,beton,KT104,nő,2000.02.20.,15,2021-05-13_08h03.42.134,ranlexdec,2020.2.5,Win32,60
,,,,,,,,,,,,left,0.978005,0,200,200,94,1,rotor,KT104,nő,2000.02.20.,15,2021-05-13_08h03.42.134,ranlexdec,2020.2.5,Win32,60
,,,,,,,,,,,,left,1.715635,0,201,201,42,1,összalaj,KT104,nő,2000.02.20.,15,2021-05-13_08h03.42.134,ranlexdec,2020.2.5,Win32,60
,,,,,,,,,,,,right,0.87749,0,202,202,25,1,reform,KT104,nő,2000.02.20.,15,2021-05-13_08h03.42.134,ranlexdec,2020.2.5,Win32,60
,,,,,,,,,,,,right,1.19873,0,203,203,177,1,pereg,KT104,nő,2000.02.20.,15,2021-05-13_08h03.42.134,ranlexdec,2020.2.5,Win32,60
,,,,,,,,,,,,right,0.863565,0,204,204,37,1,lukaszt,KT104,nő,2000.02.20.,15,2021-05-13_08h03.42.134,ranlexdec,2020.2.5,Win32,60
,,,,,,,,,,,,left,1.53071,0,205,205,112,1,méhezter,KT104,nő,2000.02.20.,15,2021-05-13_08h03.42.134,ranlexdec,2020.2.5,Win32,60
,,,,,,,,,,,,left,1.09544,0,206,206,163,1,kollapszus,KT104,nő,2000.02.20.,15,2021-05-13_08h03.42.134,ranlexdec,2020.2.5,Win32,60
,,,,,,,,,,,,right,0.72766,0,207,207,78,1,törékeny,KT104,nő,2000.02.20.,15,2021-05-13_08h03.42.134,ranlexdec,2020.2.5,Win32,60
,,,,,,,,,,,,left,1.915205,0,208,208,153,1,kontrapunkt,KT104,nő,2000.02.20.,15,2021-05-13_08h03.42.134,ranlexdec,2020.2.5,Win32,60
,,,,,,,,,,,,left,2.24212,0,209,209,91,1,tajtásos,KT104,nő,2000.02.20.,15,2021-05-13_08h03.42.134,ranlexdec,2020.2.5,Win32,60
,,,,,,,,,,,,right,1.020325,0,210,210,147,1,referál,KT104,nő,2000.02.20.,15,2021-05-13_08h03.42.134,ranlexdec,2020.2.5,Win32,60
,,,,,,,,,,,,right,0.76836,0,211,211,59,1,ómagyar,KT104,nő,2000.02.20.,15,2021-05-13_08h03.42.134,ranlexdec,2020.2.5,Win32,60
,,,,,,,,,,,,left,1.10988,0,212,212,36,1,tröshet,KT104,nő,2000.02.20.,15,2021-05-13_08h03.42.134,ranlexdec,2020.2.5,Win32,60
,,,,,,,,,,,,right,1.103015,0,213,213,151,1,komplex,KT104,nő,2000.02.20.,15,2021-05-13_08h03.42.134,ranlexdec,2020.2.5,Win32,60
,,,,,,,,,,,,right,0.878115,0,214,214,85,1,glükóz,KT104,nő,2000.02.20.,15,2021-05-13_08h03.42.134,ranlexdec,2020.2.5,Win32,60
,,,,,,,,,,,,left,2.02598,0,215,215,60,1,bárányfark,KT104,nő,2000.02.20.,15,2021-05-13_08h03.42.134,ranlexdec,2020.2.5,Win32,60
,,,,,,,,,,,,left,3.049975,0,216,216,107,1,kelől,KT104,nő,2000.02.20.,15,2021-05-13_08h03.42.134,ranlexdec,2020.2.5,Win32,60
,,,,,,,,,,,,right,0.87051,0,217,217,113,1,piktogram,KT104,nő,2000.02.20.,15,2021-05-13_08h03.42.134,ranlexdec,2020.2.5,Win32,60
,,,,,,,,,,,,left,0.91136,0,218,218,186,1,piláf,KT104,nő,2000.02.20.,15,2021-05-13_08h03.42.134,ranlexdec,2020.2.5,Win32,60
,,,,,,,,,,,,right,0.83629,0,219,219,130,1,derít,KT104,nő,2000.02.20.,15,2021-05-13_08h03.42.134,ranlexdec,2020.2.5,Win32,60
,,,,,,,,,,,,right,1.02227,0,220,220,14,1,selypít,KT104,nő,2000.02.20.,15,2021-05-13_08h03.42.134,ranlexdec,2020.2.5,Win32,60
,,,,,,,,,,,,right,0.994985,0,221,221,99,1,sárgaréz,KT104,nő,2000.02.20.,15,2021-05-13_08h03.42.134,ranlexdec,2020.2.5,Win32,60
,,,,,,,,,,,,right,0.78311,0,222,222,171,1,újgazdag,KT104,nő,2000.02.20.,15,2021-05-13_08h03.42.134,ranlexdec,2020.2.5,Win32,60
,,,,,,,,,,,,right,0.978465,0,223,223,35,1,türemlik,KT104,nő,2000.02.20.,15,2021-05-13_08h03.42.134,ranlexdec,2020.2.5,Win32,60
,,,,,,,,,,,,right,0.96803,0,224,224,21,1,heveny,KT104,nő,2000.02.20.,15,2021-05-13_08h03.42.134,ranlexdec,2020.2.5,Win32,60
,,,,,,,,,,,,right,0.8386,0,225,225,6,1,csüggeszt,KT104,nő,2000.02.20.,15,2021-05-13_08h03.42.134,ranlexdec,2020.2.5,Win32,60
,,,,,,,,,,,,right,0.733075,0,226,226,236,1,csatázik,KT104,nő,2000.02.20.,15,2021-05-13_08h03.42.134,ranlexdec,2020.2.5,Win32,60
,,,,,,,,,,,,left,1.01628,0,227,227,198,1,lublika,KT104,nő,2000.02.20.,15,2021-05-13_08h03.42.134,ranlexdec,2020.2.5,Win32,60
,,,,,,,,,,,,left,1.04978,0,228,228,65,1,infimum,KT104,nő,2000.02.20.,15,2021-05-13_08h03.42.134,ranlexdec,2020.2.5,Win32,60
,,,,,,,,,,,,right,1.148395,0,229,229,249,1,kencéz,KT104,nő,2000.02.20.,15,2021-05-13_08h03.42.134,ranlexdec,2020.2.5,Win32,60
,,,,,,,,,,,,left,2.06144,0,230,230,125,1,úszamos,KT104,nő,2000.02.20.,15,2021-05-13_08h03.42.134,ranlexdec,2020.2.5,Win32,60
,,,,,,,,,,,,left,1.82014,0,231,231,173,1,glosszáz,KT104,nő,2000.02.20.,15,2021-05-13_08h03.42.134,ranlexdec,2020.2.5,Win32,60
,,,,,,,,,,,,right,1.076605,0,232,232,90,1,orális,KT104,nő,2000.02.20.,15,2021-05-13_08h03.42.134,ranlexdec,2020.2.5,Win32,60
,,,,,,,,,,,,right,1.37596,0,233,233,105,1,tököl,KT104,nő,2000.02.20.,15,2021-05-13_08h03.42.134,ranlexdec,2020.2.5,Win32,60
,,,,,,,,,,,,right,0.769955,0,234,234,161,1,példakép,KT104,nő,2000.02.20.,15,2021-05-13_08h03.42.134,ranlexdec,2020.2.5,Win32,60
,,,,,,,,,,,,left,1.14414,0,235,235,197,1,krakéler,KT104,nő,2000.02.20.,15,2021-05-13_08h03.42.134,ranlexdec,2020.2.5,Win32,60
,,,,,,,,,,,,right,0.72609,0,236,236,247,1,ausztrál,KT104,nő,2000.02.20.,15,2021-05-13_08h03.42.134,ranlexdec,2020.2.5,Win32,60
,,,,,,,,,,,,left,1.80528,0,237,237,29,1,novagár,KT104,nő,2000.02.20.,15,2021-05-13_08h03.42.134,ranlexdec,2020.2.5,Win32,60
,,,,,,,,,,,,right,0.75403,0,238,238,114,1,tartalom,KT104,nő,2000.02.20.,15,2021-05-13_08h03.42.134,ranlexdec,2020.2.5,Win32,60
,,,,,,,,,,,,left,1.02651,0,239,239,15,1,pauzál,KT104,nő,2000.02.20.,15,2021-05-13_08h03.42.134,ranlexdec,2020.2.5,Win32,60
,,,,,,,,,,,,right,0.68124,0,240,240,45,1,népszerű,KT104,nő,2000.02.20.,15,2021-05-13_08h03.42.134,ranlexdec,2020.2.5,Win32,60
,,,,,,,,,,,,right,0.59903,0,241,241,140,1,diktátor,KT104,nő,2000.02.20.,15,2021-05-13_08h03.42.134,ranlexdec,2020.2.5,Win32,60
,,,,,,,,,,,,left,2.01204,0,242,242,191,1,hitódó,KT104,nő,2000.02.20.,15,2021-05-13_08h03.42.134,ranlexdec,2020.2.5,Win32,60
,,,,,,,,,,,,right,0.851835,0,243,243,128,1,csüggedez,KT104,nő,2000.02.20.,15,2021-05-13_08h03.42.134,ranlexdec,2020.2.5,Win32,60
,,,,,,,,,,,,right,0.927835,0,244,244,168,1,grafikon,KT104,nő,2000.02.20.,15,2021-05-13_08h03.42.134,ranlexdec,2020.2.5,Win32,60
,,,,,,,,,,,,left,1.926705,0,245,245,139,1,vároló,KT104,nő,2000.02.20.,15,2021-05-13_08h03.42.134,ranlexdec,2020.2.5,Win32,60
,,,,,,,,,,,,right,0.848475,0,246,246,145,1,kurtít,KT104,nő,2000.02.20.,15,2021-05-13_08h03.42.134,ranlexdec,2020.2.5,Win32,60
,,,,,,,,,,,,right,0.71435,0,247,247,20,1,század,KT104,nő,2000.02.20.,15,2021-05-13_08h03.42.134,ranlexdec,2020.2.5,Win32,60
,,,,,,,,,,,,right,0.85384,0,248,248,135,1,ion,KT104,nő,2000.02.20.,15,2021-05-13_08h03.42.134,ranlexdec,2020.2.5,Win32,60
,,,,,,,,,,,,right,0.73757,0,249,249,183,1,színpad,KT104,nő,2000.02.20.,15,2021-05-13_08h03.42.134,ranlexdec,2020.2.5,Win32,60
