ready2_2.keys,ready2_2.rt,ready2.keys,ready2.rt,key_resp.keys,key_resp.rt,key_resp_3.keys,key_resp_3.rt,key_resp_2.keys,key_resp_2.rt,ready3.keys,ready3.rt,resp.keys,resp.rt,withinBlock.thisRepN,withinBlock.thisTrialN,withinBlock.thisN,withinBlock.thisIndex,withinBlock.ran,word,Azonosító,Az Ön neme,Születési éve,Hány évet töltött az iskolapadban (egyetemet is beleértve),date,expName,psychopyVersion,OS,frameRate
j,19.78013,u,0.00102,right,16.74696,left,3.96847,left,4.706835,semicolon,15.82435,right,2.05268,0,0,0,223,1,árstop,KT231,nő,1982,20,2021-05-14_13h05.50.830,ranlexdec,2020.2.5,Win32,60
,,,,,,,,,,,,left,1.35533,0,1,1,153,1,kontrapunkt,KT231,nő,1982,20,2021-05-14_13h05.50.830,ranlexdec,2020.2.5,Win32,60
,,,,,,,,,,,,right,1.184985,0,2,2,220,1,csontdarab,KT231,nő,1982,20,2021-05-14_13h05.50.830,ranlexdec,2020.2.5,Win32,60
,,,,,,,,,,,,right,0.95393,0,3,3,183,1,színpad,KT231,nő,1982,20,2021-05-14_13h05.50.830,ranlexdec,2020.2.5,Win32,60
,,,,,,,,,,,,right,0.95972,0,4,4,111,1,koenzim,KT231,nő,1982,20,2021-05-14_13h05.50.830,ranlexdec,2020.2.5,Win32,60
,,,,,,,,,,,,right,1.319415,0,5,5,152,1,rakódik,KT231,nő,1982,20,2021-05-14_13h05.50.830,ranlexdec,2020.2.5,Win32,60
,,,,,,,,,,,,right,1.270695,0,6,6,209,1,hidegház,KT231,nő,1982,20,2021-05-14_13h05.50.830,ranlexdec,2020.2.5,Win32,60
,,,,,,,,,,,,right,0.801245,0,7,7,187,1,testnedv,KT231,nő,1982,20,2021-05-14_13h05.50.830,ranlexdec,2020.2.5,Win32,60
,,,,,,,,,,,,left,2.701985,0,8,8,137,1,aragas,KT231,nő,1982,20,2021-05-14_13h05.50.830,ranlexdec,2020.2.5,Win32,60
,,,,,,,,,,,,right,0.934115,0,9,9,185,1,gyülemlik,KT231,nő,1982,20,2021-05-14_13h05.50.830,ranlexdec,2020.2.5,Win32,60
,,,,,,,,,,,,right,1.53862,0,10,10,11,1,viszkóz,KT231,nő,1982,20,2021-05-14_13h05.50.830,ranlexdec,2020.2.5,Win32,60
,,,,,,,,,,,,right,0.91299,0,11,11,158,1,hidroxid,KT231,nő,1982,20,2021-05-14_13h05.50.830,ranlexdec,2020.2.5,Win32,60
,,,,,,,,,,,,right,0.96893,0,12,12,95,1,skubizik,KT231,nő,1982,20,2021-05-14_13h05.50.830,ranlexdec,2020.2.5,Win32,60
,,,,,,,,,,,,left,2.03465,0,13,13,52,1,kunyai,KT231,nő,1982,20,2021-05-14_13h05.50.830,ranlexdec,2020.2.5,Win32,60
,,,,,,,,,,,,right,0.721575,0,14,14,159,1,elegy,KT231,nő,1982,20,2021-05-14_13h05.50.830,ranlexdec,2020.2.5,Win32,60
,,,,,,,,,,,,right,0.830895,0,15,15,45,1,népszerű,KT231,nő,1982,20,2021-05-14_13h05.50.830,ranlexdec,2020.2.5,Win32,60
,,,,,,,,,,,,right,0.600805,0,16,16,176,1,bélyeg,KT231,nő,1982,20,2021-05-14_13h05.50.830,ranlexdec,2020.2.5,Win32,60
,,,,,,,,,,,,left,0.96385,0,17,17,225,1,bajadér,KT231,nő,1982,20,2021-05-14_13h05.50.830,ranlexdec,2020.2.5,Win32,60
,,,,,,,,,,,,right,0.769875,0,18,18,67,1,szegény,KT231,nő,1982,20,2021-05-14_13h05.50.830,ranlexdec,2020.2.5,Win32,60
,,,,,,,,,,,,left,1.067405,0,19,19,205,1,mimézis,KT231,nő,1982,20,2021-05-14_13h05.50.830,ranlexdec,2020.2.5,Win32,60
,,,,,,,,,,,,left,1.2836,0,20,20,166,1,retálhit,KT231,nő,1982,20,2021-05-14_13h05.50.830,ranlexdec,2020.2.5,Win32,60
,,,,,,,,,,,,right,1.805465,0,21,21,37,1,lukaszt,KT231,nő,1982,20,2021-05-14_13h05.50.830,ranlexdec,2020.2.5,Win32,60
,,,,,,,,,,,,right,0.6626,0,22,22,55,1,látszik,KT231,nő,1982,20,2021-05-14_13h05.50.830,ranlexdec,2020.2.5,Win32,60
,,,,,,,,,,,,right,1.063275,0,23,23,44,1,ingváll,KT231,nő,1982,20,2021-05-14_13h05.50.830,ranlexdec,2020.2.5,Win32,60
,,,,,,,,,,,,left,1.333255,0,24,24,2,1,gyásos,KT231,nő,1982,20,2021-05-14_13h05.50.830,ranlexdec,2020.2.5,Win32,60
,,,,,,,,,,,,left,1.388875,0,25,25,164,1,kurzivál,KT231,nő,1982,20,2021-05-14_13h05.50.830,ranlexdec,2020.2.5,Win32,60
,,,,,,,,,,,,left,0.77742,0,26,26,5,1,retta,KT231,nő,1982,20,2021-05-14_13h05.50.830,ranlexdec,2020.2.5,Win32,60
,,,,,,,,,,,,right,1.06521,0,27,27,129,1,turné,KT231,nő,1982,20,2021-05-14_13h05.50.830,ranlexdec,2020.2.5,Win32,60
,,,,,,,,,,,,right,0.92096,0,28,28,174,1,cianid,KT231,nő,1982,20,2021-05-14_13h05.50.830,ranlexdec,2020.2.5,Win32,60
,,,,,,,,,,,,right,0.76757,0,29,29,62,1,bizmut,KT231,nő,1982,20,2021-05-14_13h05.50.830,ranlexdec,2020.2.5,Win32,60
,,,,,,,,,,,,right,0.638655,0,30,30,160,1,százalék,KT231,nő,1982,20,2021-05-14_13h05.50.830,ranlexdec,2020.2.5,Win32,60
,,,,,,,,,,,,right,0.960765,0,31,31,221,1,törődik,KT231,nő,1982,20,2021-05-14_13h05.50.830,ranlexdec,2020.2.5,Win32,60
,,,,,,,,,,,,right,2.146375,0,32,32,17,1,magmatit,KT231,nő,1982,20,2021-05-14_13h05.50.830,ranlexdec,2020.2.5,Win32,60
,,,,,,,,,,,,right,0.592595,0,33,33,0,1,irány,KT231,nő,1982,20,2021-05-14_13h05.50.830,ranlexdec,2020.2.5,Win32,60
,,,,,,,,,,,,right,1.77233,0,34,34,163,1,kollapszus,KT231,nő,1982,20,2021-05-14_13h05.50.830,ranlexdec,2020.2.5,Win32,60
,,,,,,,,,,,,left,2.136425,0,35,35,38,1,zomogyi,KT231,nő,1982,20,2021-05-14_13h05.50.830,ranlexdec,2020.2.5,Win32,60
,,,,,,,,,,,,left,3.73965,0,36,36,106,1,lalláz,KT231,nő,1982,20,2021-05-14_13h05.50.830,ranlexdec,2020.2.5,Win32,60
,,,,,,,,,,,,right,1.003505,0,37,37,156,1,lazúroz,KT231,nő,1982,20,2021-05-14_13h05.50.830,ranlexdec,2020.2.5,Win32,60
,,,,,,,,,,,,right,4.03994,0,38,38,196,1,dolgozik,KT231,nő,1982,20,2021-05-14_13h05.50.830,ranlexdec,2020.2.5,Win32,60
,,,,,,,,,,,,left,1.2169,0,39,39,83,1,vonzum,KT231,nő,1982,20,2021-05-14_13h05.50.830,ranlexdec,2020.2.5,Win32,60
,,,,,,,,,,,,right,0.894095,0,40,40,87,1,forrpont,KT231,nő,1982,20,2021-05-14_13h05.50.830,ranlexdec,2020.2.5,Win32,60
,,,,,,,,,,,,right,1.3032,0,41,41,195,1,petél,KT231,nő,1982,20,2021-05-14_13h05.50.830,ranlexdec,2020.2.5,Win32,60
,,,,,,,,,,,,right,2.53514,0,42,42,70,1,lakotthely,KT231,nő,1982,20,2021-05-14_13h05.50.830,ranlexdec,2020.2.5,Win32,60
,,,,,,,,,,,,right,0.79365,0,43,43,247,1,ausztrál,KT231,nő,1982,20,2021-05-14_13h05.50.830,ranlexdec,2020.2.5,Win32,60
,,,,,,,,,,,,left,1.695715,0,44,44,155,1,megpadék,KT231,nő,1982,20,2021-05-14_13h05.50.830,ranlexdec,2020.2.5,Win32,60
,,,,,,,,,,,,right,1.265395,0,45,45,89,1,szokik,KT231,nő,1982,20,2021-05-14_13h05.50.830,ranlexdec,2020.2.5,Win32,60
,,,,,,,,,,,,right,1.149735,0,46,46,14,1,selypít,KT231,nő,1982,20,2021-05-14_13h05.50.830,ranlexdec,2020.2.5,Win32,60
,,,,,,,,,,,,right,1.339925,0,47,47,146,1,kondenzcsík,KT231,nő,1982,20,2021-05-14_13h05.50.830,ranlexdec,2020.2.5,Win32,60
,,,,,,,,,,,,right,0.86791,0,48,48,105,1,tököl,KT231,nő,1982,20,2021-05-14_13h05.50.830,ranlexdec,2020.2.5,Win32,60
,,,,,,,,,,,,left,2.187605,0,49,49,71,1,extuál,KT231,nő,1982,20,2021-05-14_13h05.50.830,ranlexdec,2020.2.5,Win32,60
,,,,,,,,,,,,left,1.407945,0,50,50,119,1,cugehőr,KT231,nő,1982,20,2021-05-14_13h05.50.830,ranlexdec,2020.2.5,Win32,60
,,,,,,,,,,,,right,1.18637,0,51,51,232,1,tropikus,KT231,nő,1982,20,2021-05-14_13h05.50.830,ranlexdec,2020.2.5,Win32,60
,,,,,,,,,,,,left,2.82878,0,52,52,240,1,áradmány,KT231,nő,1982,20,2021-05-14_13h05.50.830,ranlexdec,2020.2.5,Win32,60
,,,,,,,,,,,,right,2.598325,0,53,53,99,1,sárgaréz,KT231,nő,1982,20,2021-05-14_13h05.50.830,ranlexdec,2020.2.5,Win32,60
,,,,,,,,,,,,left,6.11156,0,54,54,233,1,templomoz,KT231,nő,1982,20,2021-05-14_13h05.50.830,ranlexdec,2020.2.5,Win32,60
,,,,,,,,,,,,right,0.664395,0,55,55,58,1,barát,KT231,nő,1982,20,2021-05-14_13h05.50.830,ranlexdec,2020.2.5,Win32,60
,,,,,,,,,,,,right,0.66505,0,56,56,68,1,kitin,KT231,nő,1982,20,2021-05-14_13h05.50.830,ranlexdec,2020.2.5,Win32,60
,,,,,,,,,,,,right,0.656665,0,57,57,214,1,tenger,KT231,nő,1982,20,2021-05-14_13h05.50.830,ranlexdec,2020.2.5,Win32,60
,,,,,,,,,,,,right,0.766175,0,58,58,7,1,űrlap,KT231,nő,1982,20,2021-05-14_13h05.50.830,ranlexdec,2020.2.5,Win32,60
,,,,,,,,,,,,right,0.73657,0,59,59,245,1,ellenfél,KT231,nő,1982,20,2021-05-14_13h05.50.830,ranlexdec,2020.2.5,Win32,60
,,,,,,,,,,,,left,2.938765,0,60,60,117,1,ószeven,KT231,nő,1982,20,2021-05-14_13h05.50.830,ranlexdec,2020.2.5,Win32,60
,,,,,,,,,,,,right,0.794915,0,61,61,213,1,eszköz,KT231,nő,1982,20,2021-05-14_13h05.50.830,ranlexdec,2020.2.5,Win32,60
,,,,,,,,,,,,right,0.5786,0,62,62,177,1,pereg,KT231,nő,1982,20,2021-05-14_13h05.50.830,ranlexdec,2020.2.5,Win32,60
,,,,,,,,,,,,right,0.609475,0,63,63,28,1,gazdag,KT231,nő,1982,20,2021-05-14_13h05.50.830,ranlexdec,2020.2.5,Win32,60
,,,,,,,,,,,,right,0.72132,0,64,64,41,1,nagybeteg,KT231,nő,1982,20,2021-05-14_13h05.50.830,ranlexdec,2020.2.5,Win32,60
,,,,,,,,,,,,right,0.511695,0,65,65,90,1,orális,KT231,nő,1982,20,2021-05-14_13h05.50.830,ranlexdec,2020.2.5,Win32,60
,,,,,,,,,,,,left,1.516225,0,66,66,197,1,krakéler,KT231,nő,1982,20,2021-05-14_13h05.50.830,ranlexdec,2020.2.5,Win32,60
,,,,,,,,,,,,right,0.74454,0,67,67,10,1,nárcisz,KT231,nő,1982,20,2021-05-14_13h05.50.830,ranlexdec,2020.2.5,Win32,60
,,,,,,,,,,,,right,0.714075,0,68,68,188,1,sugár,KT231,nő,1982,20,2021-05-14_13h05.50.830,ranlexdec,2020.2.5,Win32,60
,,,,,,,,,,,,right,1.042445,0,69,69,186,1,piláf,KT231,nő,1982,20,2021-05-14_13h05.50.830,ranlexdec,2020.2.5,Win32,60
,,,,,,,,,,,,right,1.68049,0,70,70,110,1,időszak,KT231,nő,1982,20,2021-05-14_13h05.50.830,ranlexdec,2020.2.5,Win32,60
,,,,,,,,,,,,left,1.866165,0,71,71,125,1,úszamos,KT231,nő,1982,20,2021-05-14_13h05.50.830,ranlexdec,2020.2.5,Win32,60
,,,,,,,,,,,,right,0.552495,0,72,72,231,1,igény,KT231,nő,1982,20,2021-05-14_13h05.50.830,ranlexdec,2020.2.5,Win32,60
,,,,,,,,,,,,right,0.717355,0,73,73,211,1,tábornagy,KT231,nő,1982,20,2021-05-14_13h05.50.830,ranlexdec,2020.2.5,Win32,60
,,,,,,,,,,,,left,1.798385,0,74,74,97,1,vésségi,KT231,nő,1982,20,2021-05-14_13h05.50.830,ranlexdec,2020.2.5,Win32,60
,,,,,,,,,,,,right,0.66288,0,75,75,126,1,rejtőzik,KT231,nő,1982,20,2021-05-14_13h05.50.830,ranlexdec,2020.2.5,Win32,60
,,,,,,,,,,,,right,0.777325,0,76,76,78,1,törékeny,KT231,nő,1982,20,2021-05-14_13h05.50.830,ranlexdec,2020.2.5,Win32,60
,,,,,,,,,,,,right,1.736495,0,77,77,171,1,újgazdag,KT231,nő,1982,20,2021-05-14_13h05.50.830,ranlexdec,2020.2.5,Win32,60
,,,,,,,,,,,,right,1.12603,0,78,78,18,1,csapattest,KT231,nő,1982,20,2021-05-14_13h05.50.830,ranlexdec,2020.2.5,Win32,60
,,,,,,,,,,,,right,0.670805,0,79,79,222,1,nyersarany,KT231,nő,1982,20,2021-05-14_13h05.50.830,ranlexdec,2020.2.5,Win32,60
,,,,,,,,,,,,right,1.18514,0,80,80,172,1,kettősfém,KT231,nő,1982,20,2021-05-14_13h05.50.830,ranlexdec,2020.2.5,Win32,60
,,,,,,,,,,,,right,0.812845,0,81,81,193,1,bacon,KT231,nő,1982,20,2021-05-14_13h05.50.830,ranlexdec,2020.2.5,Win32,60
,,,,,,,,,,,,right,1.166335,0,82,82,69,1,gerencsér,KT231,nő,1982,20,2021-05-14_13h05.50.830,ranlexdec,2020.2.5,Win32,60
,,,,,,,,,,,,right,0.696605,0,83,83,12,1,gyapot,KT231,nő,1982,20,2021-05-14_13h05.50.830,ranlexdec,2020.2.5,Win32,60
,,,,,,,,,,,,right,7.383095,0,84,84,4,1,viszonvád,KT231,nő,1982,20,2021-05-14_13h05.50.830,ranlexdec,2020.2.5,Win32,60
,,,,,,,,,,,,left,1.317085,0,85,85,109,1,vényegő,KT231,nő,1982,20,2021-05-14_13h05.50.830,ranlexdec,2020.2.5,Win32,60
,,,,,,,,,,,,right,0.667285,0,86,86,241,1,kárpit,KT231,nő,1982,20,2021-05-14_13h05.50.830,ranlexdec,2020.2.5,Win32,60
,,,,,,,,,,,,right,0.628265,0,87,87,92,1,lágyék,KT231,nő,1982,20,2021-05-14_13h05.50.830,ranlexdec,2020.2.5,Win32,60
,,,,,,,,,,,,left,3.00378,0,88,88,76,1,jegedény,KT231,nő,1982,20,2021-05-14_13h05.50.830,ranlexdec,2020.2.5,Win32,60
,,,,,,,,,,,,right,1.014415,0,89,89,63,1,viszkózus,KT231,nő,1982,20,2021-05-14_13h05.50.830,ranlexdec,2020.2.5,Win32,60
,,,,,,,,,,,,left,1.430715,0,90,90,66,1,parkkói,KT231,nő,1982,20,2021-05-14_13h05.50.830,ranlexdec,2020.2.5,Win32,60
,,,,,,,,,,,,right,0.99511,0,91,91,236,1,csatázik,KT231,nő,1982,20,2021-05-14_13h05.50.830,ranlexdec,2020.2.5,Win32,60
,,,,,,,,,,,,left,1.299545,0,92,92,198,1,lublika,KT231,nő,1982,20,2021-05-14_13h05.50.830,ranlexdec,2020.2.5,Win32,60
,,,,,,,,,,,,right,0.65679,0,93,93,228,1,tarol,KT231,nő,1982,20,2021-05-14_13h05.50.830,ranlexdec,2020.2.5,Win32,60
,,,,,,,,,,,,right,1.46313,0,94,94,115,1,fajansz,KT231,nő,1982,20,2021-05-14_13h05.50.830,ranlexdec,2020.2.5,Win32,60
,,,,,,,,,,,,left,1.294505,0,95,95,133,1,hübrisz,KT231,nő,1982,20,2021-05-14_13h05.50.830,ranlexdec,2020.2.5,Win32,60
,,,,,,,,,,,,right,0.78511,0,96,96,56,1,kanalaz,KT231,nő,1982,20,2021-05-14_13h05.50.830,ranlexdec,2020.2.5,Win32,60
,,,,,,,,,,,,right,1.577855,0,97,97,157,1,káder,KT231,nő,1982,20,2021-05-14_13h05.50.830,ranlexdec,2020.2.5,Win32,60
,,,,,,,,,,,,left,1.55199,0,98,98,142,1,storítő,KT231,nő,1982,20,2021-05-14_13h05.50.830,ranlexdec,2020.2.5,Win32,60
,,,,,,,,,,,,right,0.796215,0,99,99,84,1,kúpol,KT231,nő,1982,20,2021-05-14_13h05.50.830,ranlexdec,2020.2.5,Win32,60
,,,,,,,,,,,,left,1.506975,0,100,100,191,1,hitódó,KT231,nő,1982,20,2021-05-14_13h05.50.830,ranlexdec,2020.2.5,Win32,60
,,,,,,,,,,,,right,0.89079,0,101,101,179,1,töredék,KT231,nő,1982,20,2021-05-14_13h05.50.830,ranlexdec,2020.2.5,Win32,60
,,,,,,,,,,,,left,3.46191,0,102,102,173,1,glosszáz,KT231,nő,1982,20,2021-05-14_13h05.50.830,ranlexdec,2020.2.5,Win32,60
,,,,,,,,,,,,right,1.3397,0,103,103,32,1,genom,KT231,nő,1982,20,2021-05-14_13h05.50.830,ranlexdec,2020.2.5,Win32,60
,,,,,,,,,,,,right,1.39229,0,104,104,143,1,rojtoz,KT231,nő,1982,20,2021-05-14_13h05.50.830,ranlexdec,2020.2.5,Win32,60
,,,,,,,,,,,,right,1.153535,0,105,105,201,1,szempont,KT231,nő,1982,20,2021-05-14_13h05.50.830,ranlexdec,2020.2.5,Win32,60
,,,,,,,,,,,,right,1.03021,0,106,106,123,1,luftballon,KT231,nő,1982,20,2021-05-14_13h05.50.830,ranlexdec,2020.2.5,Win32,60
,,,,,,,,,,,,right,0.916455,0,107,107,53,1,puritán,KT231,nő,1982,20,2021-05-14_13h05.50.830,ranlexdec,2020.2.5,Win32,60
,,,,,,,,,,,,left,2.04461,0,108,108,46,1,kurzív,KT231,nő,1982,20,2021-05-14_13h05.50.830,ranlexdec,2020.2.5,Win32,60
,,,,,,,,,,,,right,0.922795,0,109,109,149,1,anorák,KT231,nő,1982,20,2021-05-14_13h05.50.830,ranlexdec,2020.2.5,Win32,60
,,,,,,,,,,,,right,0.760685,0,110,110,22,1,arzénsav,KT231,nő,1982,20,2021-05-14_13h05.50.830,ranlexdec,2020.2.5,Win32,60
,,,,,,,,,,,,left,1.292735,0,111,111,65,1,infimum,KT231,nő,1982,20,2021-05-14_13h05.50.830,ranlexdec,2020.2.5,Win32,60
,,,,,,,,,,,,left,1.312095,0,112,112,207,1,diffamál,KT231,nő,1982,20,2021-05-14_13h05.50.830,ranlexdec,2020.2.5,Win32,60
,,,,,,,,,,,,left,2.53683,0,113,113,112,1,méhezter,KT231,nő,1982,20,2021-05-14_13h05.50.830,ranlexdec,2020.2.5,Win32,60
,,,,,,,,,,,,left,1.55586,0,114,114,181,1,dohorpák,KT231,nő,1982,20,2021-05-14_13h05.50.830,ranlexdec,2020.2.5,Win32,60
,,,,,,,,,,,,right,0.80012,0,115,115,1,1,csapdáz,KT231,nő,1982,20,2021-05-14_13h05.50.830,ranlexdec,2020.2.5,Win32,60
,,,,,,,,,,,,right,0.947835,0,116,116,94,1,rotor,KT231,nő,1982,20,2021-05-14_13h05.50.830,ranlexdec,2020.2.5,Win32,60
,,,,,,,,,,,,right,0.87098,0,117,117,212,1,farkasbab,KT231,nő,1982,20,2021-05-14_13h05.50.830,ranlexdec,2020.2.5,Win32,60
,,,,,,,,,,,,right,0.7377,0,118,118,175,1,szilikát,KT231,nő,1982,20,2021-05-14_13h05.50.830,ranlexdec,2020.2.5,Win32,60
,,,,,,,,,,,,left,0.971095,0,119,119,26,1,aurult,KT231,nő,1982,20,2021-05-14_13h05.50.830,ranlexdec,2020.2.5,Win32,60
,,,,,,,,,,,,right,0.637865,0,120,120,135,1,ion,KT231,nő,1982,20,2021-05-14_13h05.50.830,ranlexdec,2020.2.5,Win32,60
,,,,,,,,,,,,right,0.81793,0,121,121,180,1,adszorbens,KT231,nő,1982,20,2021-05-14_13h05.50.830,ranlexdec,2020.2.5,Win32,60
,,,,,,,,,,,,right,0.81085,0,122,122,202,1,abszint,KT231,nő,1982,20,2021-05-14_13h05.50.830,ranlexdec,2020.2.5,Win32,60
,,,,,,,,,,,,right,0.61143,0,123,123,88,1,pohár,KT231,nő,1982,20,2021-05-14_13h05.50.830,ranlexdec,2020.2.5,Win32,60
,,,,,,,,,,,,left,1.21145,0,124,124,150,1,orront,KT231,nő,1982,20,2021-05-14_13h05.50.830,ranlexdec,2020.2.5,Win32,60
,,,,,,,,,,,,right,0.70976,0,125,125,39,1,könnyelmű,KT231,nő,1982,20,2021-05-14_13h05.50.830,ranlexdec,2020.2.5,Win32,60
,,,,,,,,,,,,right,0.669815,0,126,126,151,1,komplex,KT231,nő,1982,20,2021-05-14_13h05.50.830,ranlexdec,2020.2.5,Win32,60
,,,,,,,,,,,,left,2.911445,0,127,127,29,1,novagár,KT231,nő,1982,20,2021-05-14_13h05.50.830,ranlexdec,2020.2.5,Win32,60
,,,,,,,,,,,,right,0.8796,0,128,128,98,1,mítosz,KT231,nő,1982,20,2021-05-14_13h05.50.830,ranlexdec,2020.2.5,Win32,60
,,,,,,,,,,,,right,0.653815,0,129,129,30,1,dádá,KT231,nő,1982,20,2021-05-14_13h05.50.830,ranlexdec,2020.2.5,Win32,60
,,,,,,,,,,,,right,0.689475,0,130,130,130,1,derít,KT231,nő,1982,20,2021-05-14_13h05.50.830,ranlexdec,2020.2.5,Win32,60
,,,,,,,,,,,,left,1.44653,0,131,131,72,1,mihálóz,KT231,nő,1982,20,2021-05-14_13h05.50.830,ranlexdec,2020.2.5,Win32,60
,,,,,,,,,,,,right,0.663675,0,132,132,248,1,örmény,KT231,nő,1982,20,2021-05-14_13h05.50.830,ranlexdec,2020.2.5,Win32,60
,,,,,,,,,,,,right,0.70187,0,133,133,25,1,reform,KT231,nő,1982,20,2021-05-14_13h05.50.830,ranlexdec,2020.2.5,Win32,60
,,,,,,,,,,,,right,0.701155,0,134,134,48,1,reagál,KT231,nő,1982,20,2021-05-14_13h05.50.830,ranlexdec,2020.2.5,Win32,60
,,,,,,,,,,,,left,1.71629,0,135,135,229,1,lemesség,KT231,nő,1982,20,2021-05-14_13h05.50.830,ranlexdec,2020.2.5,Win32,60
,,,,,,,,,,,,right,0.87302,0,136,136,215,1,neoprén,KT231,nő,1982,20,2021-05-14_13h05.50.830,ranlexdec,2020.2.5,Win32,60
,,,,,,,,,,,,right,0.71272,0,137,137,194,1,végbél,KT231,nő,1982,20,2021-05-14_13h05.50.830,ranlexdec,2020.2.5,Win32,60
,,,,,,,,,,,,left,1.544675,0,138,138,192,1,norvend,KT231,nő,1982,20,2021-05-14_13h05.50.830,ranlexdec,2020.2.5,Win32,60
,,,,,,,,,,,,left,3.267155,0,139,139,75,1,karnogó,KT231,nő,1982,20,2021-05-14_13h05.50.830,ranlexdec,2020.2.5,Win32,60
,,,,,,,,,,,,right,1.192155,0,140,140,118,1,libling,KT231,nő,1982,20,2021-05-14_13h05.50.830,ranlexdec,2020.2.5,Win32,60
,,,,,,,,,,,,right,1.135105,0,141,141,182,1,nagyszámú,KT231,nő,1982,20,2021-05-14_13h05.50.830,ranlexdec,2020.2.5,Win32,60
,,,,,,,,,,,,right,0.961065,0,142,142,210,1,karakter,KT231,nő,1982,20,2021-05-14_13h05.50.830,ranlexdec,2020.2.5,Win32,60
,,,,,,,,,,,,right,0.963605,0,143,143,230,1,délceg,KT231,nő,1982,20,2021-05-14_13h05.50.830,ranlexdec,2020.2.5,Win32,60
,,,,,,,,,,,,right,1.0032,0,144,144,154,1,keresztény,KT231,nő,1982,20,2021-05-14_13h05.50.830,ranlexdec,2020.2.5,Win32,60
,,,,,,,,,,,,right,0.528765,0,145,145,246,1,beton,KT231,nő,1982,20,2021-05-14_13h05.50.830,ranlexdec,2020.2.5,Win32,60
,,,,,,,,,,,,left,1.11992,0,146,146,3,1,tömzsa,KT231,nő,1982,20,2021-05-14_13h05.50.830,ranlexdec,2020.2.5,Win32,60
,,,,,,,,,,,,right,1.01437,0,147,147,234,1,fertilis,KT231,nő,1982,20,2021-05-14_13h05.50.830,ranlexdec,2020.2.5,Win32,60
,,,,,,,,,,,,right,0.89986,0,148,148,243,1,dipeptid,KT231,nő,1982,20,2021-05-14_13h05.50.830,ranlexdec,2020.2.5,Win32,60
,,,,,,,,,,,,left,2.526475,0,149,149,49,1,ernyak,KT231,nő,1982,20,2021-05-14_13h05.50.830,ranlexdec,2020.2.5,Win32,60
,,,,,,,,,,,,right,0.86785,0,150,150,113,1,piktogram,KT231,nő,1982,20,2021-05-14_13h05.50.830,ranlexdec,2020.2.5,Win32,60
,,,,,,,,,,,,right,0.51878,0,151,151,80,1,darab,KT231,nő,1982,20,2021-05-14_13h05.50.830,ranlexdec,2020.2.5,Win32,60
,,,,,,,,,,,,right,2.974445,0,152,152,141,1,hider,KT231,nő,1982,20,2021-05-14_13h05.50.830,ranlexdec,2020.2.5,Win32,60
,,,,,,,,,,,,right,1.0112,0,153,153,19,1,tangózik,KT231,nő,1982,20,2021-05-14_13h05.50.830,ranlexdec,2020.2.5,Win32,60
,,,,,,,,,,,,left,0.972795,0,154,154,203,1,abeti,KT231,nő,1982,20,2021-05-14_13h05.50.830,ranlexdec,2020.2.5,Win32,60
,,,,,,,,,,,,left,0.916955,0,155,155,167,1,vabank,KT231,nő,1982,20,2021-05-14_13h05.50.830,ranlexdec,2020.2.5,Win32,60
,,,,,,,,,,,,left,1.605465,0,156,156,42,1,összalaj,KT231,nő,1982,20,2021-05-14_13h05.50.830,ranlexdec,2020.2.5,Win32,60
,,,,,,,,,,,,right,0.59528,0,157,157,244,1,kislány,KT231,nő,1982,20,2021-05-14_13h05.50.830,ranlexdec,2020.2.5,Win32,60
,,,,,,,,,,,,left,1.30602,0,158,158,93,1,kilukát,KT231,nő,1982,20,2021-05-14_13h05.50.830,ranlexdec,2020.2.5,Win32,60
,,,,,,,,,,,,right,0.76731,0,159,159,122,1,égitest,KT231,nő,1982,20,2021-05-14_13h05.50.830,ranlexdec,2020.2.5,Win32,60
,,,,,,,,,,,,right,0.74888,0,160,160,21,1,heveny,KT231,nő,1982,20,2021-05-14_13h05.50.830,ranlexdec,2020.2.5,Win32,60
,,,,,,,,,,,,left,1.79102,0,161,161,40,1,diviz,KT231,nő,1982,20,2021-05-14_13h05.50.830,ranlexdec,2020.2.5,Win32,60
,,,,,,,,,,,,left,1.65389,0,162,162,127,1,rozintem,KT231,nő,1982,20,2021-05-14_13h05.50.830,ranlexdec,2020.2.5,Win32,60
,,,,,,,,,,,,right,0.995745,0,163,163,145,1,kurtít,KT231,nő,1982,20,2021-05-14_13h05.50.830,ranlexdec,2020.2.5,Win32,60
,,,,,,,,,,,,right,1.062875,0,164,164,34,1,csengettyű,KT231,nő,1982,20,2021-05-14_13h05.50.830,ranlexdec,2020.2.5,Win32,60
,,,,,,,,,,,,right,0.71591,0,165,165,139,1,vároló,KT231,nő,1982,20,2021-05-14_13h05.50.830,ranlexdec,2020.2.5,Win32,60
,,,,,,,,,,,,right,1.832895,0,166,166,120,1,komál,KT231,nő,1982,20,2021-05-14_13h05.50.830,ranlexdec,2020.2.5,Win32,60
,,,,,,,,,,,,left,1.777125,0,167,167,204,1,kocskesi,KT231,nő,1982,20,2021-05-14_13h05.50.830,ranlexdec,2020.2.5,Win32,60
,,,,,,,,,,,,right,2.88393,0,168,168,217,1,ifjít,KT231,nő,1982,20,2021-05-14_13h05.50.830,ranlexdec,2020.2.5,Win32,60
,,,,,,,,,,,,right,0.91877,0,169,169,226,1,szalicil,KT231,nő,1982,20,2021-05-14_13h05.50.830,ranlexdec,2020.2.5,Win32,60
,,,,,,,,,,,,right,0.95723,0,170,170,140,1,diktátor,KT231,nő,1982,20,2021-05-14_13h05.50.830,ranlexdec,2020.2.5,Win32,60
,,,,,,,,,,,,right,0.71506,0,171,171,238,1,bolgár,KT231,nő,1982,20,2021-05-14_13h05.50.830,ranlexdec,2020.2.5,Win32,60
,,,,,,,,,,,,right,0.94426,0,172,172,100,1,balközép,KT231,nő,1982,20,2021-05-14_13h05.50.830,ranlexdec,2020.2.5,Win32,60
,,,,,,,,,,,,right,0.632295,0,173,173,237,1,forgórész,KT231,nő,1982,20,2021-05-14_13h05.50.830,ranlexdec,2020.2.5,Win32,60
,,,,,,,,,,,,right,1.208975,0,174,174,199,1,ború,KT231,nő,1982,20,2021-05-14_13h05.50.830,ranlexdec,2020.2.5,Win32,60
,,,,,,,,,,,,right,0.596595,0,175,175,9,1,hajlik,KT231,nő,1982,20,2021-05-14_13h05.50.830,ranlexdec,2020.2.5,Win32,60
,,,,,,,,,,,,left,2.24436,0,176,176,131,1,vetézmés,KT231,nő,1982,20,2021-05-14_13h05.50.830,ranlexdec,2020.2.5,Win32,60
,,,,,,,,,,,,left,1.879325,0,177,177,23,1,szelégül,KT231,nő,1982,20,2021-05-14_13h05.50.830,ranlexdec,2020.2.5,Win32,60
,,,,,,,,,,,,right,0.669565,0,178,178,114,1,tartalom,KT231,nő,1982,20,2021-05-14_13h05.50.830,ranlexdec,2020.2.5,Win32,60
,,,,,,,,,,,,right,0.936355,0,179,179,27,1,sporthorgász,KT231,nő,1982,20,2021-05-14_13h05.50.830,ranlexdec,2020.2.5,Win32,60
,,,,,,,,,,,,right,0.518925,0,180,180,43,1,közhely,KT231,nő,1982,20,2021-05-14_13h05.50.830,ranlexdec,2020.2.5,Win32,60
,,,,,,,,,,,,right,0.61939,0,181,181,124,1,alkalom,KT231,nő,1982,20,2021-05-14_13h05.50.830,ranlexdec,2020.2.5,Win32,60
,,,,,,,,,,,,right,0.605555,0,182,182,184,1,profit,KT231,nő,1982,20,2021-05-14_13h05.50.830,ranlexdec,2020.2.5,Win32,60
,,,,,,,,,,,,right,0.5,0,183,183,132,1,hatalom,KT231,nő,1982,20,2021-05-14_13h05.50.830,ranlexdec,2020.2.5,Win32,60
,,,,,,,,,,,,right,1.73324,0,184,184,239,1,donhuán,KT231,nő,1982,20,2021-05-14_13h05.50.830,ranlexdec,2020.2.5,Win32,60
,,,,,,,,,,,,left,1.26169,0,185,185,16,1,cséltás,KT231,nő,1982,20,2021-05-14_13h05.50.830,ranlexdec,2020.2.5,Win32,60
,,,,,,,,,,,,right,1.517555,0,186,186,60,1,bárányfark,KT231,nő,1982,20,2021-05-14_13h05.50.830,ranlexdec,2020.2.5,Win32,60
,,,,,,,,,,,,right,1.398425,0,187,187,13,1,törköly,KT231,nő,1982,20,2021-05-14_13h05.50.830,ranlexdec,2020.2.5,Win32,60
,,,,,,,,,,,,right,0.96856,0,188,188,82,1,kvéker,KT231,nő,1982,20,2021-05-14_13h05.50.830,ranlexdec,2020.2.5,Win32,60
,,,,,,,,,,,,right,0.972585,0,189,189,242,1,rekvizit,KT231,nő,1982,20,2021-05-14_13h05.50.830,ranlexdec,2020.2.5,Win32,60
,,,,,,,,,,,,left,1.75357,0,190,190,121,1,aggófű,KT231,nő,1982,20,2021-05-14_13h05.50.830,ranlexdec,2020.2.5,Win32,60
,,,,,,,,,,,,right,0.68624,0,191,191,61,1,régész,KT231,nő,1982,20,2021-05-14_13h05.50.830,ranlexdec,2020.2.5,Win32,60
,,,,,,,,,,,,right,0.665055,0,192,192,144,1,rövid,KT231,nő,1982,20,2021-05-14_13h05.50.830,ranlexdec,2020.2.5,Win32,60
,,,,,,,,,,,,left,1.072085,0,193,193,218,1,tortya,KT231,nő,1982,20,2021-05-14_13h05.50.830,ranlexdec,2020.2.5,Win32,60
,,,,,,,,,,,,right,0.76418,0,194,194,161,1,példakép,KT231,nő,1982,20,2021-05-14_13h05.50.830,ranlexdec,2020.2.5,Win32,60
,,,,,,,,,,,,left,1.13604,0,195,195,91,1,tajtásos,KT231,nő,1982,20,2021-05-14_13h05.50.830,ranlexdec,2020.2.5,Win32,60
,,,,,,,,,,,,right,0.638305,0,196,196,101,1,nukleon,KT231,nő,1982,20,2021-05-14_13h05.50.830,ranlexdec,2020.2.5,Win32,60
,,,,,,,,,,,,left,1.14972,0,197,197,134,1,móringol,KT231,nő,1982,20,2021-05-14_13h05.50.830,ranlexdec,2020.2.5,Win32,60
,,,,,,,,,,,,left,0.818435,0,198,198,36,1,tröshet,KT231,nő,1982,20,2021-05-14_13h05.50.830,ranlexdec,2020.2.5,Win32,60
,,,,,,,,,,,,right,0.660175,0,199,199,169,1,komoly,KT231,nő,1982,20,2021-05-14_13h05.50.830,ranlexdec,2020.2.5,Win32,60
,,,,,,,,,,,,right,1.564565,0,200,200,35,1,türemlik,KT231,nő,1982,20,2021-05-14_13h05.50.830,ranlexdec,2020.2.5,Win32,60
,,,,,,,,,,,,right,0.555305,0,201,201,208,1,lélek,KT231,nő,1982,20,2021-05-14_13h05.50.830,ranlexdec,2020.2.5,Win32,60
,,,,,,,,,,,,right,0.50127,0,202,202,116,1,árus,KT231,nő,1982,20,2021-05-14_13h05.50.830,ranlexdec,2020.2.5,Win32,60
,,,,,,,,,,,,left,1.186445,0,203,203,224,1,truccol,KT231,nő,1982,20,2021-05-14_13h05.50.830,ranlexdec,2020.2.5,Win32,60
,,,,,,,,,,,,right,1.058715,0,204,204,138,1,gyűjtemény,KT231,nő,1982,20,2021-05-14_13h05.50.830,ranlexdec,2020.2.5,Win32,60
,,,,,,,,,,,,right,0.645675,0,205,205,8,1,kulcscsont,KT231,nő,1982,20,2021-05-14_13h05.50.830,ranlexdec,2020.2.5,Win32,60
,,,,,,,,,,,,right,0.566705,0,206,206,168,1,grafikon,KT231,nő,1982,20,2021-05-14_13h05.50.830,ranlexdec,2020.2.5,Win32,60
,,,,,,,,,,,,right,0.56258,0,207,207,59,1,ómagyar,KT231,nő,1982,20,2021-05-14_13h05.50.830,ranlexdec,2020.2.5,Win32,60
,,,,,,,,,,,,right,0.6598,0,208,208,206,1,horizont,KT231,nő,1982,20,2021-05-14_13h05.50.830,ranlexdec,2020.2.5,Win32,60
,,,,,,,,,,,,right,0.657175,0,209,209,189,1,konverzál,KT231,nő,1982,20,2021-05-14_13h05.50.830,ranlexdec,2020.2.5,Win32,60
,,,,,,,,,,,,left,2.928495,0,210,210,107,1,kelől,KT231,nő,1982,20,2021-05-14_13h05.50.830,ranlexdec,2020.2.5,Win32,60
,,,,,,,,,,,,left,1.179905,0,211,211,74,1,püffeszt,KT231,nő,1982,20,2021-05-14_13h05.50.830,ranlexdec,2020.2.5,Win32,60
,,,,,,,,,,,,left,1.363295,0,212,212,81,1,takorák,KT231,nő,1982,20,2021-05-14_13h05.50.830,ranlexdec,2020.2.5,Win32,60
,,,,,,,,,,,,right,0.63922,0,213,213,170,1,változik,KT231,nő,1982,20,2021-05-14_13h05.50.830,ranlexdec,2020.2.5,Win32,60
,,,,,,,,,,,,right,0.620945,0,214,214,85,1,glükóz,KT231,nő,1982,20,2021-05-14_13h05.50.830,ranlexdec,2020.2.5,Win32,60
,,,,,,,,,,,,left,1.59511,0,215,215,103,1,szabotró,KT231,nő,1982,20,2021-05-14_13h05.50.830,ranlexdec,2020.2.5,Win32,60
,,,,,,,,,,,,left,1.01589,0,216,216,47,1,döföl,KT231,nő,1982,20,2021-05-14_13h05.50.830,ranlexdec,2020.2.5,Win32,60
,,,,,,,,,,,,left,1.03744,0,217,217,128,1,csüggedez,KT231,nő,1982,20,2021-05-14_13h05.50.830,ranlexdec,2020.2.5,Win32,60
,,,,,,,,,,,,right,1.27838,0,218,218,200,1,biliárd,KT231,nő,1982,20,2021-05-14_13h05.50.830,ranlexdec,2020.2.5,Win32,60
,,,,,,,,,,,,left,1.34964,0,219,219,102,1,pentez,KT231,nő,1982,20,2021-05-14_13h05.50.830,ranlexdec,2020.2.5,Win32,60
,,,,,,,,,,,,right,1.210535,0,220,220,96,1,alfél,KT231,nő,1982,20,2021-05-14_13h05.50.830,ranlexdec,2020.2.5,Win32,60
,,,,,,,,,,,,left,2.09536,0,221,221,219,1,szimboló,KT231,nő,1982,20,2021-05-14_13h05.50.830,ranlexdec,2020.2.5,Win32,60
,,,,,,,,,,,,right,0.560585,0,222,222,54,1,fürkész,KT231,nő,1982,20,2021-05-14_13h05.50.830,ranlexdec,2020.2.5,Win32,60
,,,,,,,,,,,,left,1.56582,0,223,223,50,1,csenyei,KT231,nő,1982,20,2021-05-14_13h05.50.830,ranlexdec,2020.2.5,Win32,60
,,,,,,,,,,,,right,1.133645,0,224,224,178,1,sziszeg,KT231,nő,1982,20,2021-05-14_13h05.50.830,ranlexdec,2020.2.5,Win32,60
,,,,,,,,,,,,left,1.146205,0,225,225,108,1,konyrúd,KT231,nő,1982,20,2021-05-14_13h05.50.830,ranlexdec,2020.2.5,Win32,60
,,,,,,,,,,,,right,0.747545,0,226,226,20,1,század,KT231,nő,1982,20,2021-05-14_13h05.50.830,ranlexdec,2020.2.5,Win32,60
,,,,,,,,,,,,right,2.632145,0,227,227,216,1,svábtök,KT231,nő,1982,20,2021-05-14_13h05.50.830,ranlexdec,2020.2.5,Win32,60
,,,,,,,,,,,,right,0.920715,0,228,228,190,1,rámáz,KT231,nő,1982,20,2021-05-14_13h05.50.830,ranlexdec,2020.2.5,Win32,60
,,,,,,,,,,,,right,1.011465,0,229,229,77,1,egant,KT231,nő,1982,20,2021-05-14_13h05.50.830,ranlexdec,2020.2.5,Win32,60
,,,,,,,,,,,,right,1.027645,0,230,230,227,1,kötődik,KT231,nő,1982,20,2021-05-14_13h05.50.830,ranlexdec,2020.2.5,Win32,60
,,,,,,,,,,,,right,0.88387,0,231,231,31,1,iszlám,KT231,nő,1982,20,2021-05-14_13h05.50.830,ranlexdec,2020.2.5,Win32,60
,,,,,,,,,,,,right,0.496255,0,232,232,73,1,olaj,KT231,nő,1982,20,2021-05-14_13h05.50.830,ranlexdec,2020.2.5,Win32,60
,,,,,,,,,,,,right,0.728775,0,233,233,136,1,rücsök,KT231,nő,1982,20,2021-05-14_13h05.50.830,ranlexdec,2020.2.5,Win32,60
,,,,,,,,,,,,right,0.569825,0,234,234,86,1,jármű,KT231,nő,1982,20,2021-05-14_13h05.50.830,ranlexdec,2020.2.5,Win32,60
,,,,,,,,,,,,left,1.180345,0,235,235,24,1,kosi,KT231,nő,1982,20,2021-05-14_13h05.50.830,ranlexdec,2020.2.5,Win32,60
,,,,,,,,,,,,right,2.4356,0,236,236,235,1,transzplantál,KT231,nő,1982,20,2021-05-14_13h05.50.830,ranlexdec,2020.2.5,Win32,60
,,,,,,,,,,,,right,0.77702,0,237,237,57,1,lejmol,KT231,nő,1982,20,2021-05-14_13h05.50.830,ranlexdec,2020.2.5,Win32,60
,,,,,,,,,,,,right,0.76941,0,238,238,249,1,kencéz,KT231,nő,1982,20,2021-05-14_13h05.50.830,ranlexdec,2020.2.5,Win32,60
,,,,,,,,,,,,right,0.716805,0,239,239,33,1,kalcium,KT231,nő,1982,20,2021-05-14_13h05.50.830,ranlexdec,2020.2.5,Win32,60
,,,,,,,,,,,,right,0.851065,0,240,240,165,1,lépték,KT231,nő,1982,20,2021-05-14_13h05.50.830,ranlexdec,2020.2.5,Win32,60
,,,,,,,,,,,,right,0.69446,0,241,241,6,1,csüggeszt,KT231,nő,1982,20,2021-05-14_13h05.50.830,ranlexdec,2020.2.5,Win32,60
,,,,,,,,,,,,right,1.145925,0,242,242,51,1,bajuszfű,KT231,nő,1982,20,2021-05-14_13h05.50.830,ranlexdec,2020.2.5,Win32,60
,,,,,,,,,,,,right,0.995235,0,243,243,104,1,dolog,KT231,nő,1982,20,2021-05-14_13h05.50.830,ranlexdec,2020.2.5,Win32,60
,,,,,,,,,,,,right,0.70688,0,244,244,147,1,referál,KT231,nő,1982,20,2021-05-14_13h05.50.830,ranlexdec,2020.2.5,Win32,60
,,,,,,,,,,,,right,0.671035,0,245,245,64,1,hálózsák,KT231,nő,1982,20,2021-05-14_13h05.50.830,ranlexdec,2020.2.5,Win32,60
,,,,,,,,,,,,right,0.621555,0,246,246,148,1,mellényzseb,KT231,nő,1982,20,2021-05-14_13h05.50.830,ranlexdec,2020.2.5,Win32,60
,,,,,,,,,,,,right,1.136245,0,247,247,15,1,pauzál,KT231,nő,1982,20,2021-05-14_13h05.50.830,ranlexdec,2020.2.5,Win32,60
,,,,,,,,,,,,right,1.419235,0,248,248,79,1,extrém,KT231,nő,1982,20,2021-05-14_13h05.50.830,ranlexdec,2020.2.5,Win32,60
,,,,,,,,,,,,right,0.7124,0,249,249,162,1,nimbus,KT231,nő,1982,20,2021-05-14_13h05.50.830,ranlexdec,2020.2.5,Win32,60
