ready2_2.keys,ready2_2.rt,ready2.keys,ready2.rt,key_resp.keys,key_resp.rt,key_resp_3.keys,key_resp_3.rt,key_resp_2.keys,key_resp_2.rt,ready3.keys,ready3.rt,resp.keys,resp.rt,withinBlock.thisRepN,withinBlock.thisTrialN,withinBlock.thisN,withinBlock.thisIndex,withinBlock.ran,word,Azonosító,Az Ön neme,Születési éve,Hány évet töltött az iskolapadban (egyetemet is beleértve),date,expName,psychopyVersion,OS,frameRate
return,29.64631,return,36.761755,right,1.97302,left,1.02425,left,0.97353,return,10.5456,left,1.557035,0,0,0,30,1,dádá,KT123,nő,1977.03.10,20,2021-05-13_09h29.20.068,ranlexdec,2020.2.5,Win32,60
,,,,,,,,,,,,right,0.99983,0,1,1,25,1,reform,KT123,nő,1977.03.10,20,2021-05-13_09h29.20.068,ranlexdec,2020.2.5,Win32,60
,,,,,,,,,,,,right,1.26421,0,2,2,111,1,koenzim,KT123,nő,1977.03.10,20,2021-05-13_09h29.20.068,ranlexdec,2020.2.5,Win32,60
,,,,,,,,,,,,right,0.99596,0,3,3,34,1,csengettyű,KT123,nő,1977.03.10,20,2021-05-13_09h29.20.068,ranlexdec,2020.2.5,Win32,60
,,,,,,,,,,,,left,1.81982,0,4,4,46,1,kurzív,KT123,nő,1977.03.10,20,2021-05-13_09h29.20.068,ranlexdec,2020.2.5,Win32,60
,,,,,,,,,,,,right,1.2657,0,5,5,210,1,karakter,KT123,nő,1977.03.10,20,2021-05-13_09h29.20.068,ranlexdec,2020.2.5,Win32,60
,,,,,,,,,,,,left,1.2001,0,6,6,173,1,glosszáz,KT123,nő,1977.03.10,20,2021-05-13_09h29.20.068,ranlexdec,2020.2.5,Win32,60
,,,,,,,,,,,,left,1.05971,0,7,7,96,1,alfél,KT123,nő,1977.03.10,20,2021-05-13_09h29.20.068,ranlexdec,2020.2.5,Win32,60
,,,,,,,,,,,,right,0.958875,0,8,8,135,1,ion,KT123,nő,1977.03.10,20,2021-05-13_09h29.20.068,ranlexdec,2020.2.5,Win32,60
,,,,,,,,,,,,left,1.00786,0,9,9,5,1,retta,KT123,nő,1977.03.10,20,2021-05-13_09h29.20.068,ranlexdec,2020.2.5,Win32,60
,,,,,,,,,,,,right,0.75245,0,10,10,116,1,árus,KT123,nő,1977.03.10,20,2021-05-13_09h29.20.068,ranlexdec,2020.2.5,Win32,60
,,,,,,,,,,,,left,0.99739,0,11,11,65,1,infimum,KT123,nő,1977.03.10,20,2021-05-13_09h29.20.068,ranlexdec,2020.2.5,Win32,60
,,,,,,,,,,,,right,0.78931,0,12,12,237,1,forgórész,KT123,nő,1977.03.10,20,2021-05-13_09h29.20.068,ranlexdec,2020.2.5,Win32,60
,,,,,,,,,,,,right,0.744965,0,13,13,245,1,ellenfél,KT123,nő,1977.03.10,20,2021-05-13_09h29.20.068,ranlexdec,2020.2.5,Win32,60
,,,,,,,,,,,,right,0.644045,0,14,14,126,1,rejtőzik,KT123,nő,1977.03.10,20,2021-05-13_09h29.20.068,ranlexdec,2020.2.5,Win32,60
,,,,,,,,,,,,right,0.92942,0,15,15,226,1,szalicil,KT123,nő,1977.03.10,20,2021-05-13_09h29.20.068,ranlexdec,2020.2.5,Win32,60
,,,,,,,,,,,,right,0.768475,0,16,16,68,1,kitin,KT123,nő,1977.03.10,20,2021-05-13_09h29.20.068,ranlexdec,2020.2.5,Win32,60
,,,,,,,,,,,,left,1.04856,0,17,17,155,1,megpadék,KT123,nő,1977.03.10,20,2021-05-13_09h29.20.068,ranlexdec,2020.2.5,Win32,60
,,,,,,,,,,,,right,0.71446,0,18,18,194,1,végbél,KT123,nő,1977.03.10,20,2021-05-13_09h29.20.068,ranlexdec,2020.2.5,Win32,60
,,,,,,,,,,,,left,1.0157,0,19,19,118,1,libling,KT123,nő,1977.03.10,20,2021-05-13_09h29.20.068,ranlexdec,2020.2.5,Win32,60
,,,,,,,,,,,,left,1.023475,0,20,20,133,1,hübrisz,KT123,nő,1977.03.10,20,2021-05-13_09h29.20.068,ranlexdec,2020.2.5,Win32,60
,,,,,,,,,,,,right,0.740305,0,21,21,199,1,ború,KT123,nő,1977.03.10,20,2021-05-13_09h29.20.068,ranlexdec,2020.2.5,Win32,60
,,,,,,,,,,,,right,2.84197,0,22,22,70,1,lakotthely,KT123,nő,1977.03.10,20,2021-05-13_09h29.20.068,ranlexdec,2020.2.5,Win32,60
,,,,,,,,,,,,right,1.149755,0,23,23,48,1,reagál,KT123,nő,1977.03.10,20,2021-05-13_09h29.20.068,ranlexdec,2020.2.5,Win32,60
,,,,,,,,,,,,right,0.95302,0,24,24,78,1,törékeny,KT123,nő,1977.03.10,20,2021-05-13_09h29.20.068,ranlexdec,2020.2.5,Win32,60
,,,,,,,,,,,,right,1.26031,0,25,25,37,1,lukaszt,KT123,nő,1977.03.10,20,2021-05-13_09h29.20.068,ranlexdec,2020.2.5,Win32,60
,,,,,,,,,,,,right,1.091585,0,26,26,168,1,grafikon,KT123,nő,1977.03.10,20,2021-05-13_09h29.20.068,ranlexdec,2020.2.5,Win32,60
,,,,,,,,,,,,right,1.498885,0,27,27,185,1,gyülemlik,KT123,nő,1977.03.10,20,2021-05-13_09h29.20.068,ranlexdec,2020.2.5,Win32,60
,,,,,,,,,,,,left,1.069545,0,28,28,181,1,dohorpák,KT123,nő,1977.03.10,20,2021-05-13_09h29.20.068,ranlexdec,2020.2.5,Win32,60
,,,,,,,,,,,,right,0.748045,0,29,29,121,1,aggófű,KT123,nő,1977.03.10,20,2021-05-13_09h29.20.068,ranlexdec,2020.2.5,Win32,60
,,,,,,,,,,,,left,0.97733,0,30,30,16,1,cséltás,KT123,nő,1977.03.10,20,2021-05-13_09h29.20.068,ranlexdec,2020.2.5,Win32,60
,,,,,,,,,,,,right,0.61652,0,31,31,196,1,dolgozik,KT123,nő,1977.03.10,20,2021-05-13_09h29.20.068,ranlexdec,2020.2.5,Win32,60
,,,,,,,,,,,,left,2.03001,0,32,32,239,1,donhuán,KT123,nő,1977.03.10,20,2021-05-13_09h29.20.068,ranlexdec,2020.2.5,Win32,60
,,,,,,,,,,,,right,1.49257,0,33,33,85,1,glükóz,KT123,nő,1977.03.10,20,2021-05-13_09h29.20.068,ranlexdec,2020.2.5,Win32,60
,,,,,,,,,,,,right,0.64724,0,34,34,45,1,népszerű,KT123,nő,1977.03.10,20,2021-05-13_09h29.20.068,ranlexdec,2020.2.5,Win32,60
,,,,,,,,,,,,right,0.651785,0,35,35,221,1,törődik,KT123,nő,1977.03.10,20,2021-05-13_09h29.20.068,ranlexdec,2020.2.5,Win32,60
,,,,,,,,,,,,right,0.66299,0,36,36,67,1,szegény,KT123,nő,1977.03.10,20,2021-05-13_09h29.20.068,ranlexdec,2020.2.5,Win32,60
,,,,,,,,,,,,right,1.42149,0,37,37,69,1,gerencsér,KT123,nő,1977.03.10,20,2021-05-13_09h29.20.068,ranlexdec,2020.2.5,Win32,60
,,,,,,,,,,,,right,1.58369,0,38,38,47,1,döföl,KT123,nő,1977.03.10,20,2021-05-13_09h29.20.068,ranlexdec,2020.2.5,Win32,60
,,,,,,,,,,,,left,0.90144,0,39,39,52,1,kunyai,KT123,nő,1977.03.10,20,2021-05-13_09h29.20.068,ranlexdec,2020.2.5,Win32,60
,,,,,,,,,,,,left,1.314995,0,40,40,164,1,kurzivál,KT123,nő,1977.03.10,20,2021-05-13_09h29.20.068,ranlexdec,2020.2.5,Win32,60
,,,,,,,,,,,,left,1.164145,0,41,41,36,1,tröshet,KT123,nő,1977.03.10,20,2021-05-13_09h29.20.068,ranlexdec,2020.2.5,Win32,60
,,,,,,,,,,,,right,1.586485,0,42,42,220,1,csontdarab,KT123,nő,1977.03.10,20,2021-05-13_09h29.20.068,ranlexdec,2020.2.5,Win32,60
,,,,,,,,,,,,left,1.014885,0,43,43,228,1,tarol,KT123,nő,1977.03.10,20,2021-05-13_09h29.20.068,ranlexdec,2020.2.5,Win32,60
,,,,,,,,,,,,right,0.767055,0,44,44,73,1,olaj,KT123,nő,1977.03.10,20,2021-05-13_09h29.20.068,ranlexdec,2020.2.5,Win32,60
,,,,,,,,,,,,right,1.428795,0,45,45,94,1,rotor,KT123,nő,1977.03.10,20,2021-05-13_09h29.20.068,ranlexdec,2020.2.5,Win32,60
,,,,,,,,,,,,right,0.80832,0,46,46,179,1,töredék,KT123,nő,1977.03.10,20,2021-05-13_09h29.20.068,ranlexdec,2020.2.5,Win32,60
,,,,,,,,,,,,right,1.227265,0,47,47,1,1,csapdáz,KT123,nő,1977.03.10,20,2021-05-13_09h29.20.068,ranlexdec,2020.2.5,Win32,60
,,,,,,,,,,,,left,1.301025,0,48,48,131,1,vetézmés,KT123,nő,1977.03.10,20,2021-05-13_09h29.20.068,ranlexdec,2020.2.5,Win32,60
,,,,,,,,,,,,right,0.852065,0,49,49,39,1,könnyelmű,KT123,nő,1977.03.10,20,2021-05-13_09h29.20.068,ranlexdec,2020.2.5,Win32,60
,,,,,,,,,,,,right,0.691455,0,50,50,54,1,fürkész,KT123,nő,1977.03.10,20,2021-05-13_09h29.20.068,ranlexdec,2020.2.5,Win32,60
,,,,,,,,,,,,left,0.82863,0,51,51,50,1,csenyei,KT123,nő,1977.03.10,20,2021-05-13_09h29.20.068,ranlexdec,2020.2.5,Win32,60
,,,,,,,,,,,,left,1.32527,0,52,52,4,1,viszonvád,KT123,nő,1977.03.10,20,2021-05-13_09h29.20.068,ranlexdec,2020.2.5,Win32,60
,,,,,,,,,,,,left,1.07717,0,53,53,102,1,pentez,KT123,nő,1977.03.10,20,2021-05-13_09h29.20.068,ranlexdec,2020.2.5,Win32,60
,,,,,,,,,,,,right,0.724675,0,54,54,184,1,profit,KT123,nő,1977.03.10,20,2021-05-13_09h29.20.068,ranlexdec,2020.2.5,Win32,60
,,,,,,,,,,,,right,0.676375,0,55,55,157,1,káder,KT123,nő,1977.03.10,20,2021-05-13_09h29.20.068,ranlexdec,2020.2.5,Win32,60
,,,,,,,,,,,,left,0.976405,0,56,56,200,1,biliárd,KT123,nő,1977.03.10,20,2021-05-13_09h29.20.068,ranlexdec,2020.2.5,Win32,60
,,,,,,,,,,,,right,0.99774,0,57,57,238,1,bolgár,KT123,nő,1977.03.10,20,2021-05-13_09h29.20.068,ranlexdec,2020.2.5,Win32,60
,,,,,,,,,,,,left,1.30525,0,58,58,205,1,mimézis,KT123,nő,1977.03.10,20,2021-05-13_09h29.20.068,ranlexdec,2020.2.5,Win32,60
,,,,,,,,,,,,right,1.477765,0,59,59,140,1,diktátor,KT123,nő,1977.03.10,20,2021-05-13_09h29.20.068,ranlexdec,2020.2.5,Win32,60
,,,,,,,,,,,,left,1.47708,0,60,60,233,1,templomoz,KT123,nő,1977.03.10,20,2021-05-13_09h29.20.068,ranlexdec,2020.2.5,Win32,60
,,,,,,,,,,,,right,0.581985,0,61,61,86,1,jármű,KT123,nő,1977.03.10,20,2021-05-13_09h29.20.068,ranlexdec,2020.2.5,Win32,60
,,,,,,,,,,,,left,1.06928,0,62,62,42,1,összalaj,KT123,nő,1977.03.10,20,2021-05-13_09h29.20.068,ranlexdec,2020.2.5,Win32,60
,,,,,,,,,,,,right,1.19942,0,63,63,62,1,bizmut,KT123,nő,1977.03.10,20,2021-05-13_09h29.20.068,ranlexdec,2020.2.5,Win32,60
,,,,,,,,,,,,right,0.74963,0,64,64,213,1,eszköz,KT123,nő,1977.03.10,20,2021-05-13_09h29.20.068,ranlexdec,2020.2.5,Win32,60
,,,,,,,,,,,,left,1.47184,0,65,65,106,1,lalláz,KT123,nő,1977.03.10,20,2021-05-13_09h29.20.068,ranlexdec,2020.2.5,Win32,60
,,,,,,,,,,,,left,1.203735,0,66,66,93,1,kilukát,KT123,nő,1977.03.10,20,2021-05-13_09h29.20.068,ranlexdec,2020.2.5,Win32,60
,,,,,,,,,,,,right,0.854735,0,67,67,147,1,referál,KT123,nő,1977.03.10,20,2021-05-13_09h29.20.068,ranlexdec,2020.2.5,Win32,60
,,,,,,,,,,,,right,0.769135,0,68,68,143,1,rojtoz,KT123,nő,1977.03.10,20,2021-05-13_09h29.20.068,ranlexdec,2020.2.5,Win32,60
,,,,,,,,,,,,right,1.221225,0,69,69,101,1,nukleon,KT123,nő,1977.03.10,20,2021-05-13_09h29.20.068,ranlexdec,2020.2.5,Win32,60
,,,,,,,,,,,,right,1.66802,0,70,70,153,1,kontrapunkt,KT123,nő,1977.03.10,20,2021-05-13_09h29.20.068,ranlexdec,2020.2.5,Win32,60
,,,,,,,,,,,,right,0.74811,0,71,71,130,1,derít,KT123,nő,1977.03.10,20,2021-05-13_09h29.20.068,ranlexdec,2020.2.5,Win32,60
,,,,,,,,,,,,left,1.121205,0,72,72,71,1,extuál,KT123,nő,1977.03.10,20,2021-05-13_09h29.20.068,ranlexdec,2020.2.5,Win32,60
,,,,,,,,,,,,right,0.70365,0,73,73,230,1,délceg,KT123,nő,1977.03.10,20,2021-05-13_09h29.20.068,ranlexdec,2020.2.5,Win32,60
,,,,,,,,,,,,right,0.86206,0,74,74,236,1,csatázik,KT123,nő,1977.03.10,20,2021-05-13_09h29.20.068,ranlexdec,2020.2.5,Win32,60
,,,,,,,,,,,,right,0.79876,0,75,75,241,1,kárpit,KT123,nő,1977.03.10,20,2021-05-13_09h29.20.068,ranlexdec,2020.2.5,Win32,60
,,,,,,,,,,,,right,0.755345,0,76,76,190,1,rámáz,KT123,nő,1977.03.10,20,2021-05-13_09h29.20.068,ranlexdec,2020.2.5,Win32,60
,,,,,,,,,,,,left,1.35184,0,77,77,91,1,tajtásos,KT123,nő,1977.03.10,20,2021-05-13_09h29.20.068,ranlexdec,2020.2.5,Win32,60
,,,,,,,,,,,,right,1.04033,0,78,78,18,1,csapattest,KT123,nő,1977.03.10,20,2021-05-13_09h29.20.068,ranlexdec,2020.2.5,Win32,60
,,,,,,,,,,,,right,0.8659,0,79,79,7,1,űrlap,KT123,nő,1977.03.10,20,2021-05-13_09h29.20.068,ranlexdec,2020.2.5,Win32,60
,,,,,,,,,,,,right,0.915715,0,80,80,123,1,luftballon,KT123,nő,1977.03.10,20,2021-05-13_09h29.20.068,ranlexdec,2020.2.5,Win32,60
,,,,,,,,,,,,left,1.44845,0,81,81,128,1,csüggedez,KT123,nő,1977.03.10,20,2021-05-13_09h29.20.068,ranlexdec,2020.2.5,Win32,60
,,,,,,,,,,,,left,1.736805,0,82,82,162,1,nimbus,KT123,nő,1977.03.10,20,2021-05-13_09h29.20.068,ranlexdec,2020.2.5,Win32,60
,,,,,,,,,,,,right,0.62537,0,83,83,43,1,közhely,KT123,nő,1977.03.10,20,2021-05-13_09h29.20.068,ranlexdec,2020.2.5,Win32,60
,,,,,,,,,,,,left,0.89973,0,84,84,38,1,zomogyi,KT123,nő,1977.03.10,20,2021-05-13_09h29.20.068,ranlexdec,2020.2.5,Win32,60
,,,,,,,,,,,,right,0.85701,0,85,85,11,1,viszkóz,KT123,nő,1977.03.10,20,2021-05-13_09h29.20.068,ranlexdec,2020.2.5,Win32,60
,,,,,,,,,,,,right,0.811585,0,86,86,120,1,komál,KT123,nő,1977.03.10,20,2021-05-13_09h29.20.068,ranlexdec,2020.2.5,Win32,60
,,,,,,,,,,,,left,0.925285,0,87,87,75,1,karnogó,KT123,nő,1977.03.10,20,2021-05-13_09h29.20.068,ranlexdec,2020.2.5,Win32,60
,,,,,,,,,,,,left,1.01628,0,88,88,15,1,pauzál,KT123,nő,1977.03.10,20,2021-05-13_09h29.20.068,ranlexdec,2020.2.5,Win32,60
,,,,,,,,,,,,right,0.598835,0,89,89,28,1,gazdag,KT123,nő,1977.03.10,20,2021-05-13_09h29.20.068,ranlexdec,2020.2.5,Win32,60
,,,,,,,,,,,,left,1.02566,0,90,90,76,1,jegedény,KT123,nő,1977.03.10,20,2021-05-13_09h29.20.068,ranlexdec,2020.2.5,Win32,60
,,,,,,,,,,,,left,0.965645,0,91,91,97,1,vésségi,KT123,nő,1977.03.10,20,2021-05-13_09h29.20.068,ranlexdec,2020.2.5,Win32,60
,,,,,,,,,,,,left,1.1741,0,92,92,84,1,kúpol,KT123,nő,1977.03.10,20,2021-05-13_09h29.20.068,ranlexdec,2020.2.5,Win32,60
,,,,,,,,,,,,right,2.082425,0,93,93,145,1,kurtít,KT123,nő,1977.03.10,20,2021-05-13_09h29.20.068,ranlexdec,2020.2.5,Win32,60
,,,,,,,,,,,,left,0.942425,0,94,94,203,1,abeti,KT123,nő,1977.03.10,20,2021-05-13_09h29.20.068,ranlexdec,2020.2.5,Win32,60
,,,,,,,,,,,,right,0.704495,0,95,95,20,1,század,KT123,nő,1977.03.10,20,2021-05-13_09h29.20.068,ranlexdec,2020.2.5,Win32,60
,,,,,,,,,,,,left,1.040435,0,96,96,103,1,szabotró,KT123,nő,1977.03.10,20,2021-05-13_09h29.20.068,ranlexdec,2020.2.5,Win32,60
,,,,,,,,,,,,left,1.15849,0,97,97,204,1,kocskesi,KT123,nő,1977.03.10,20,2021-05-13_09h29.20.068,ranlexdec,2020.2.5,Win32,60
,,,,,,,,,,,,right,0.70399,0,98,98,89,1,szokik,KT123,nő,1977.03.10,20,2021-05-13_09h29.20.068,ranlexdec,2020.2.5,Win32,60
,,,,,,,,,,,,right,1.041555,0,99,99,129,1,turné,KT123,nő,1977.03.10,20,2021-05-13_09h29.20.068,ranlexdec,2020.2.5,Win32,60
,,,,,,,,,,,,right,0.78646,0,100,100,99,1,sárgaréz,KT123,nő,1977.03.10,20,2021-05-13_09h29.20.068,ranlexdec,2020.2.5,Win32,60
,,,,,,,,,,,,right,0.77422,0,101,101,161,1,példakép,KT123,nő,1977.03.10,20,2021-05-13_09h29.20.068,ranlexdec,2020.2.5,Win32,60
,,,,,,,,,,,,right,0.8724,0,102,102,169,1,komoly,KT123,nő,1977.03.10,20,2021-05-13_09h29.20.068,ranlexdec,2020.2.5,Win32,60
,,,,,,,,,,,,left,1.207005,0,103,103,112,1,méhezter,KT123,nő,1977.03.10,20,2021-05-13_09h29.20.068,ranlexdec,2020.2.5,Win32,60
,,,,,,,,,,,,right,0.79952,0,104,104,217,1,ifjít,KT123,nő,1977.03.10,20,2021-05-13_09h29.20.068,ranlexdec,2020.2.5,Win32,60
,,,,,,,,,,,,right,1.166445,0,105,105,60,1,bárányfark,KT123,nő,1977.03.10,20,2021-05-13_09h29.20.068,ranlexdec,2020.2.5,Win32,60
,,,,,,,,,,,,right,2.167005,0,106,106,64,1,hálózsák,KT123,nő,1977.03.10,20,2021-05-13_09h29.20.068,ranlexdec,2020.2.5,Win32,60
,,,,,,,,,,,,left,0.87874,0,107,107,137,1,aragas,KT123,nő,1977.03.10,20,2021-05-13_09h29.20.068,ranlexdec,2020.2.5,Win32,60
,,,,,,,,,,,,right,0.631335,0,108,108,21,1,heveny,KT123,nő,1977.03.10,20,2021-05-13_09h29.20.068,ranlexdec,2020.2.5,Win32,60
,,,,,,,,,,,,left,1.36879,0,109,109,125,1,úszamos,KT123,nő,1977.03.10,20,2021-05-13_09h29.20.068,ranlexdec,2020.2.5,Win32,60
,,,,,,,,,,,,right,0.64205,0,110,110,110,1,időszak,KT123,nő,1977.03.10,20,2021-05-13_09h29.20.068,ranlexdec,2020.2.5,Win32,60
,,,,,,,,,,,,left,0.78794,0,111,111,141,1,hider,KT123,nő,1977.03.10,20,2021-05-13_09h29.20.068,ranlexdec,2020.2.5,Win32,60
,,,,,,,,,,,,right,0.716545,0,112,112,35,1,türemlik,KT123,nő,1977.03.10,20,2021-05-13_09h29.20.068,ranlexdec,2020.2.5,Win32,60
,,,,,,,,,,,,left,1.24823,0,113,113,240,1,áradmány,KT123,nő,1977.03.10,20,2021-05-13_09h29.20.068,ranlexdec,2020.2.5,Win32,60
,,,,,,,,,,,,right,0.628985,0,114,114,0,1,irány,KT123,nő,1977.03.10,20,2021-05-13_09h29.20.068,ranlexdec,2020.2.5,Win32,60
,,,,,,,,,,,,right,0.660175,0,115,115,61,1,régész,KT123,nő,1977.03.10,20,2021-05-13_09h29.20.068,ranlexdec,2020.2.5,Win32,60
,,,,,,,,,,,,left,1.0749,0,116,116,2,1,gyásos,KT123,nő,1977.03.10,20,2021-05-13_09h29.20.068,ranlexdec,2020.2.5,Win32,60
,,,,,,,,,,,,right,1.08394,0,117,117,188,1,sugár,KT123,nő,1977.03.10,20,2021-05-13_09h29.20.068,ranlexdec,2020.2.5,Win32,60
,,,,,,,,,,,,right,0.743465,0,118,118,90,1,orális,KT123,nő,1977.03.10,20,2021-05-13_09h29.20.068,ranlexdec,2020.2.5,Win32,60
,,,,,,,,,,,,left,1.232325,0,119,119,95,1,skubizik,KT123,nő,1977.03.10,20,2021-05-13_09h29.20.068,ranlexdec,2020.2.5,Win32,60
,,,,,,,,,,,,left,1.64219,0,120,120,82,1,kvéker,KT123,nő,1977.03.10,20,2021-05-13_09h29.20.068,ranlexdec,2020.2.5,Win32,60
,,,,,,,,,,,,right,0.83461,0,121,121,202,1,abszint,KT123,nő,1977.03.10,20,2021-05-13_09h29.20.068,ranlexdec,2020.2.5,Win32,60
,,,,,,,,,,,,right,1.929825,0,122,122,17,1,magmatit,KT123,nő,1977.03.10,20,2021-05-13_09h29.20.068,ranlexdec,2020.2.5,Win32,60
,,,,,,,,,,,,right,0.870915,0,123,123,152,1,rakódik,KT123,nő,1977.03.10,20,2021-05-13_09h29.20.068,ranlexdec,2020.2.5,Win32,60
,,,,,,,,,,,,left,0.84433,0,124,124,49,1,ernyak,KT123,nő,1977.03.10,20,2021-05-13_09h29.20.068,ranlexdec,2020.2.5,Win32,60
,,,,,,,,,,,,right,0.875305,0,125,125,55,1,látszik,KT123,nő,1977.03.10,20,2021-05-13_09h29.20.068,ranlexdec,2020.2.5,Win32,60
,,,,,,,,,,,,right,0.90342,0,126,126,177,1,pereg,KT123,nő,1977.03.10,20,2021-05-13_09h29.20.068,ranlexdec,2020.2.5,Win32,60
,,,,,,,,,,,,right,1.07714,0,127,127,163,1,kollapszus,KT123,nő,1977.03.10,20,2021-05-13_09h29.20.068,ranlexdec,2020.2.5,Win32,60
,,,,,,,,,,,,right,0.71588,0,128,128,122,1,égitest,KT123,nő,1977.03.10,20,2021-05-13_09h29.20.068,ranlexdec,2020.2.5,Win32,60
,,,,,,,,,,,,left,1.002015,0,129,129,72,1,mihálóz,KT123,nő,1977.03.10,20,2021-05-13_09h29.20.068,ranlexdec,2020.2.5,Win32,60
,,,,,,,,,,,,right,0.65286,0,130,130,56,1,kanalaz,KT123,nő,1977.03.10,20,2021-05-13_09h29.20.068,ranlexdec,2020.2.5,Win32,60
,,,,,,,,,,,,left,1.098085,0,131,131,127,1,rozintem,KT123,nő,1977.03.10,20,2021-05-13_09h29.20.068,ranlexdec,2020.2.5,Win32,60
,,,,,,,,,,,,right,0.647355,0,132,132,159,1,elegy,KT123,nő,1977.03.10,20,2021-05-13_09h29.20.068,ranlexdec,2020.2.5,Win32,60
,,,,,,,,,,,,right,0.72664,0,133,133,227,1,kötődik,KT123,nő,1977.03.10,20,2021-05-13_09h29.20.068,ranlexdec,2020.2.5,Win32,60
,,,,,,,,,,,,right,0.963935,0,134,134,175,1,szilikát,KT123,nő,1977.03.10,20,2021-05-13_09h29.20.068,ranlexdec,2020.2.5,Win32,60
,,,,,,,,,,,,right,0.83892,0,135,135,171,1,újgazdag,KT123,nő,1977.03.10,20,2021-05-13_09h29.20.068,ranlexdec,2020.2.5,Win32,60
,,,,,,,,,,,,right,0.973975,0,136,136,172,1,kettősfém,KT123,nő,1977.03.10,20,2021-05-13_09h29.20.068,ranlexdec,2020.2.5,Win32,60
,,,,,,,,,,,,right,1.616285,0,137,137,148,1,mellényzseb,KT123,nő,1977.03.10,20,2021-05-13_09h29.20.068,ranlexdec,2020.2.5,Win32,60
,,,,,,,,,,,,right,0.66574,0,138,138,44,1,ingváll,KT123,nő,1977.03.10,20,2021-05-13_09h29.20.068,ranlexdec,2020.2.5,Win32,60
,,,,,,,,,,,,left,0.75183,0,139,139,77,1,egant,KT123,nő,1977.03.10,20,2021-05-13_09h29.20.068,ranlexdec,2020.2.5,Win32,60
,,,,,,,,,,,,left,0.87993,0,140,140,107,1,kelől,KT123,nő,1977.03.10,20,2021-05-13_09h29.20.068,ranlexdec,2020.2.5,Win32,60
,,,,,,,,,,,,right,0.6056,0,141,141,6,1,csüggeszt,KT123,nő,1977.03.10,20,2021-05-13_09h29.20.068,ranlexdec,2020.2.5,Win32,60
,,,,,,,,,,,,left,1.43322,0,142,142,197,1,krakéler,KT123,nő,1977.03.10,20,2021-05-13_09h29.20.068,ranlexdec,2020.2.5,Win32,60
,,,,,,,,,,,,left,1.06005,0,143,143,139,1,vároló,KT123,nő,1977.03.10,20,2021-05-13_09h29.20.068,ranlexdec,2020.2.5,Win32,60
,,,,,,,,,,,,left,1.26582,0,144,144,22,1,arzénsav,KT123,nő,1977.03.10,20,2021-05-13_09h29.20.068,ranlexdec,2020.2.5,Win32,60
,,,,,,,,,,,,right,1.11572,0,145,145,222,1,nyersarany,KT123,nő,1977.03.10,20,2021-05-13_09h29.20.068,ranlexdec,2020.2.5,Win32,60
,,,,,,,,,,,,left,0.920035,0,146,146,109,1,vényegő,KT123,nő,1977.03.10,20,2021-05-13_09h29.20.068,ranlexdec,2020.2.5,Win32,60
,,,,,,,,,,,,right,0.517295,0,147,147,144,1,rövid,KT123,nő,1977.03.10,20,2021-05-13_09h29.20.068,ranlexdec,2020.2.5,Win32,60
,,,,,,,,,,,,right,0.92081,0,148,148,32,1,genom,KT123,nő,1977.03.10,20,2021-05-13_09h29.20.068,ranlexdec,2020.2.5,Win32,60
,,,,,,,,,,,,right,0.77311,0,149,149,244,1,kislány,KT123,nő,1977.03.10,20,2021-05-13_09h29.20.068,ranlexdec,2020.2.5,Win32,60
,,,,,,,,,,,,right,0.854405,0,150,150,246,1,beton,KT123,nő,1977.03.10,20,2021-05-13_09h29.20.068,ranlexdec,2020.2.5,Win32,60
,,,,,,,,,,,,right,0.7672,0,151,151,31,1,iszlám,KT123,nő,1977.03.10,20,2021-05-13_09h29.20.068,ranlexdec,2020.2.5,Win32,60
,,,,,,,,,,,,right,0.94611,0,152,152,146,1,kondenzcsík,KT123,nő,1977.03.10,20,2021-05-13_09h29.20.068,ranlexdec,2020.2.5,Win32,60
,,,,,,,,,,,,right,0.815535,0,153,153,150,1,orront,KT123,nő,1977.03.10,20,2021-05-13_09h29.20.068,ranlexdec,2020.2.5,Win32,60
,,,,,,,,,,,,right,0.933575,0,154,154,105,1,tököl,KT123,nő,1977.03.10,20,2021-05-13_09h29.20.068,ranlexdec,2020.2.5,Win32,60
,,,,,,,,,,,,right,0.618065,0,155,155,33,1,kalcium,KT123,nő,1977.03.10,20,2021-05-13_09h29.20.068,ranlexdec,2020.2.5,Win32,60
,,,,,,,,,,,,right,0.87428,0,156,156,180,1,adszorbens,KT123,nő,1977.03.10,20,2021-05-13_09h29.20.068,ranlexdec,2020.2.5,Win32,60
,,,,,,,,,,,,left,1.030785,0,157,157,167,1,vabank,KT123,nő,1977.03.10,20,2021-05-13_09h29.20.068,ranlexdec,2020.2.5,Win32,60
,,,,,,,,,,,,right,0.63015,0,158,158,176,1,bélyeg,KT123,nő,1977.03.10,20,2021-05-13_09h29.20.068,ranlexdec,2020.2.5,Win32,60
,,,,,,,,,,,,right,0.768695,0,159,159,53,1,puritán,KT123,nő,1977.03.10,20,2021-05-13_09h29.20.068,ranlexdec,2020.2.5,Win32,60
,,,,,,,,,,,,right,0.764815,0,160,160,58,1,barát,KT123,nő,1977.03.10,20,2021-05-13_09h29.20.068,ranlexdec,2020.2.5,Win32,60
,,,,,,,,,,,,left,0.85022,0,161,161,191,1,hitódó,KT123,nő,1977.03.10,20,2021-05-13_09h29.20.068,ranlexdec,2020.2.5,Win32,60
,,,,,,,,,,,,right,1.053125,0,162,162,223,1,árstop,KT123,nő,1977.03.10,20,2021-05-13_09h29.20.068,ranlexdec,2020.2.5,Win32,60
,,,,,,,,,,,,left,0.880565,0,163,163,229,1,lemesség,KT123,nő,1977.03.10,20,2021-05-13_09h29.20.068,ranlexdec,2020.2.5,Win32,60
,,,,,,,,,,,,right,0.732975,0,164,164,12,1,gyapot,KT123,nő,1977.03.10,20,2021-05-13_09h29.20.068,ranlexdec,2020.2.5,Win32,60
,,,,,,,,,,,,right,0.724445,0,165,165,232,1,tropikus,KT123,nő,1977.03.10,20,2021-05-13_09h29.20.068,ranlexdec,2020.2.5,Win32,60
,,,,,,,,,,,,left,0.74734,0,166,166,119,1,cugehőr,KT123,nő,1977.03.10,20,2021-05-13_09h29.20.068,ranlexdec,2020.2.5,Win32,60
,,,,,,,,,,,,left,2.179875,0,167,167,212,1,farkasbab,KT123,nő,1977.03.10,20,2021-05-13_09h29.20.068,ranlexdec,2020.2.5,Win32,60
,,,,,,,,,,,,right,1.41169,0,168,168,242,1,rekvizit,KT123,nő,1977.03.10,20,2021-05-13_09h29.20.068,ranlexdec,2020.2.5,Win32,60
,,,,,,,,,,,,right,0.75459,0,169,169,149,1,anorák,KT123,nő,1977.03.10,20,2021-05-13_09h29.20.068,ranlexdec,2020.2.5,Win32,60
,,,,,,,,,,,,right,0.6034,0,170,170,114,1,tartalom,KT123,nő,1977.03.10,20,2021-05-13_09h29.20.068,ranlexdec,2020.2.5,Win32,60
,,,,,,,,,,,,right,0.681185,0,171,171,92,1,lágyék,KT123,nő,1977.03.10,20,2021-05-13_09h29.20.068,ranlexdec,2020.2.5,Win32,60
,,,,,,,,,,,,right,0.96275,0,172,172,57,1,lejmol,KT123,nő,1977.03.10,20,2021-05-13_09h29.20.068,ranlexdec,2020.2.5,Win32,60
,,,,,,,,,,,,left,0.898665,0,173,173,207,1,diffamál,KT123,nő,1977.03.10,20,2021-05-13_09h29.20.068,ranlexdec,2020.2.5,Win32,60
,,,,,,,,,,,,right,0.61314,0,174,174,165,1,lépték,KT123,nő,1977.03.10,20,2021-05-13_09h29.20.068,ranlexdec,2020.2.5,Win32,60
,,,,,,,,,,,,right,0.60934,0,175,175,104,1,dolog,KT123,nő,1977.03.10,20,2021-05-13_09h29.20.068,ranlexdec,2020.2.5,Win32,60
,,,,,,,,,,,,left,0.788375,0,176,176,26,1,aurult,KT123,nő,1977.03.10,20,2021-05-13_09h29.20.068,ranlexdec,2020.2.5,Win32,60
,,,,,,,,,,,,left,1.033075,0,177,177,40,1,diviz,KT123,nő,1977.03.10,20,2021-05-13_09h29.20.068,ranlexdec,2020.2.5,Win32,60
,,,,,,,,,,,,left,1.166965,0,178,178,134,1,móringol,KT123,nő,1977.03.10,20,2021-05-13_09h29.20.068,ranlexdec,2020.2.5,Win32,60
,,,,,,,,,,,,right,0.689835,0,179,179,154,1,keresztény,KT123,nő,1977.03.10,20,2021-05-13_09h29.20.068,ranlexdec,2020.2.5,Win32,60
,,,,,,,,,,,,right,0.8158,0,180,180,189,1,konverzál,KT123,nő,1977.03.10,20,2021-05-13_09h29.20.068,ranlexdec,2020.2.5,Win32,60
,,,,,,,,,,,,right,1.70807,0,181,181,193,1,bacon,KT123,nő,1977.03.10,20,2021-05-13_09h29.20.068,ranlexdec,2020.2.5,Win32,60
,,,,,,,,,,,,right,0.71283,0,182,182,98,1,mítosz,KT123,nő,1977.03.10,20,2021-05-13_09h29.20.068,ranlexdec,2020.2.5,Win32,60
,,,,,,,,,,,,left,0.80681,0,183,183,29,1,novagár,KT123,nő,1977.03.10,20,2021-05-13_09h29.20.068,ranlexdec,2020.2.5,Win32,60
,,,,,,,,,,,,left,0.966955,0,184,184,23,1,szelégül,KT123,nő,1977.03.10,20,2021-05-13_09h29.20.068,ranlexdec,2020.2.5,Win32,60
,,,,,,,,,,,,left,0.902595,0,185,185,83,1,vonzum,KT123,nő,1977.03.10,20,2021-05-13_09h29.20.068,ranlexdec,2020.2.5,Win32,60
,,,,,,,,,,,,right,0.64876,0,186,186,214,1,tenger,KT123,nő,1977.03.10,20,2021-05-13_09h29.20.068,ranlexdec,2020.2.5,Win32,60
,,,,,,,,,,,,left,1.03048,0,187,187,198,1,lublika,KT123,nő,1977.03.10,20,2021-05-13_09h29.20.068,ranlexdec,2020.2.5,Win32,60
,,,,,,,,,,,,right,0.83021,0,188,188,209,1,hidegház,KT123,nő,1977.03.10,20,2021-05-13_09h29.20.068,ranlexdec,2020.2.5,Win32,60
,,,,,,,,,,,,left,1.962985,0,189,189,218,1,tortya,KT123,nő,1977.03.10,20,2021-05-13_09h29.20.068,ranlexdec,2020.2.5,Win32,60
,,,,,,,,,,,,right,2.56257,0,190,190,249,1,kencéz,KT123,nő,1977.03.10,20,2021-05-13_09h29.20.068,ranlexdec,2020.2.5,Win32,60
,,,,,,,,,,,,right,0.636315,0,191,191,248,1,örmény,KT123,nő,1977.03.10,20,2021-05-13_09h29.20.068,ranlexdec,2020.2.5,Win32,60
,,,,,,,,,,,,left,1.05817,0,192,192,81,1,takorák,KT123,nő,1977.03.10,20,2021-05-13_09h29.20.068,ranlexdec,2020.2.5,Win32,60
,,,,,,,,,,,,right,0.63335,0,193,193,247,1,ausztrál,KT123,nő,1977.03.10,20,2021-05-13_09h29.20.068,ranlexdec,2020.2.5,Win32,60
,,,,,,,,,,,,right,0.898185,0,194,194,208,1,lélek,KT123,nő,1977.03.10,20,2021-05-13_09h29.20.068,ranlexdec,2020.2.5,Win32,60
,,,,,,,,,,,,left,0.80522,0,195,195,192,1,norvend,KT123,nő,1977.03.10,20,2021-05-13_09h29.20.068,ranlexdec,2020.2.5,Win32,60
,,,,,,,,,,,,right,0.916185,0,196,196,206,1,horizont,KT123,nő,1977.03.10,20,2021-05-13_09h29.20.068,ranlexdec,2020.2.5,Win32,60
,,,,,,,,,,,,right,0.85606,0,197,197,13,1,törköly,KT123,nő,1977.03.10,20,2021-05-13_09h29.20.068,ranlexdec,2020.2.5,Win32,60
,,,,,,,,,,,,left,1.147275,0,198,198,66,1,parkkói,KT123,nő,1977.03.10,20,2021-05-13_09h29.20.068,ranlexdec,2020.2.5,Win32,60
,,,,,,,,,,,,right,0.808235,0,199,199,201,1,szempont,KT123,nő,1977.03.10,20,2021-05-13_09h29.20.068,ranlexdec,2020.2.5,Win32,60
,,,,,,,,,,,,right,1.629535,0,200,200,14,1,selypít,KT123,nő,1977.03.10,20,2021-05-13_09h29.20.068,ranlexdec,2020.2.5,Win32,60
,,,,,,,,,,,,right,1.990535,0,201,201,87,1,forrpont,KT123,nő,1977.03.10,20,2021-05-13_09h29.20.068,ranlexdec,2020.2.5,Win32,60
,,,,,,,,,,,,right,0.657775,0,202,202,178,1,sziszeg,KT123,nő,1977.03.10,20,2021-05-13_09h29.20.068,ranlexdec,2020.2.5,Win32,60
,,,,,,,,,,,,right,0.585945,0,203,203,9,1,hajlik,KT123,nő,1977.03.10,20,2021-05-13_09h29.20.068,ranlexdec,2020.2.5,Win32,60
,,,,,,,,,,,,left,1.236235,0,204,204,225,1,bajadér,KT123,nő,1977.03.10,20,2021-05-13_09h29.20.068,ranlexdec,2020.2.5,Win32,60
,,,,,,,,,,,,left,0.96554,0,205,205,219,1,szimboló,KT123,nő,1977.03.10,20,2021-05-13_09h29.20.068,ranlexdec,2020.2.5,Win32,60
,,,,,,,,,,,,left,1.006565,0,206,206,108,1,konyrúd,KT123,nő,1977.03.10,20,2021-05-13_09h29.20.068,ranlexdec,2020.2.5,Win32,60
,,,,,,,,,,,,right,0.537175,0,207,207,80,1,darab,KT123,nő,1977.03.10,20,2021-05-13_09h29.20.068,ranlexdec,2020.2.5,Win32,60
,,,,,,,,,,,,right,0.69054,0,208,208,100,1,balközép,KT123,nő,1977.03.10,20,2021-05-13_09h29.20.068,ranlexdec,2020.2.5,Win32,60
,,,,,,,,,,,,left,0.765665,0,209,209,195,1,petél,KT123,nő,1977.03.10,20,2021-05-13_09h29.20.068,ranlexdec,2020.2.5,Win32,60
,,,,,,,,,,,,right,0.608305,0,210,210,124,1,alkalom,KT123,nő,1977.03.10,20,2021-05-13_09h29.20.068,ranlexdec,2020.2.5,Win32,60
,,,,,,,,,,,,right,0.805945,0,211,211,243,1,dipeptid,KT123,nő,1977.03.10,20,2021-05-13_09h29.20.068,ranlexdec,2020.2.5,Win32,60
,,,,,,,,,,,,right,0.919655,0,212,212,19,1,tangózik,KT123,nő,1977.03.10,20,2021-05-13_09h29.20.068,ranlexdec,2020.2.5,Win32,60
,,,,,,,,,,,,left,1.05714,0,213,213,74,1,püffeszt,KT123,nő,1977.03.10,20,2021-05-13_09h29.20.068,ranlexdec,2020.2.5,Win32,60
,,,,,,,,,,,,right,0.822665,0,214,214,59,1,ómagyar,KT123,nő,1977.03.10,20,2021-05-13_09h29.20.068,ranlexdec,2020.2.5,Win32,60
,,,,,,,,,,,,left,0.925545,0,215,215,142,1,storítő,KT123,nő,1977.03.10,20,2021-05-13_09h29.20.068,ranlexdec,2020.2.5,Win32,60
,,,,,,,,,,,,right,0.73298,0,216,216,158,1,hidroxid,KT123,nő,1977.03.10,20,2021-05-13_09h29.20.068,ranlexdec,2020.2.5,Win32,60
,,,,,,,,,,,,right,0.70559,0,217,217,231,1,igény,KT123,nő,1977.03.10,20,2021-05-13_09h29.20.068,ranlexdec,2020.2.5,Win32,60
,,,,,,,,,,,,right,0.80058,0,218,218,63,1,viszkózus,KT123,nő,1977.03.10,20,2021-05-13_09h29.20.068,ranlexdec,2020.2.5,Win32,60
,,,,,,,,,,,,left,0.89149,0,219,219,216,1,svábtök,KT123,nő,1977.03.10,20,2021-05-13_09h29.20.068,ranlexdec,2020.2.5,Win32,60
,,,,,,,,,,,,right,0.832555,0,220,220,182,1,nagyszámú,KT123,nő,1977.03.10,20,2021-05-13_09h29.20.068,ranlexdec,2020.2.5,Win32,60
,,,,,,,,,,,,right,1.13185,0,221,221,27,1,sporthorgász,KT123,nő,1977.03.10,20,2021-05-13_09h29.20.068,ranlexdec,2020.2.5,Win32,60
,,,,,,,,,,,,left,1.23209,0,222,222,156,1,lazúroz,KT123,nő,1977.03.10,20,2021-05-13_09h29.20.068,ranlexdec,2020.2.5,Win32,60
,,,,,,,,,,,,right,0.56737,0,223,223,132,1,hatalom,KT123,nő,1977.03.10,20,2021-05-13_09h29.20.068,ranlexdec,2020.2.5,Win32,60
,,,,,,,,,,,,left,0.721205,0,224,224,224,1,truccol,KT123,nő,1977.03.10,20,2021-05-13_09h29.20.068,ranlexdec,2020.2.5,Win32,60
,,,,,,,,,,,,right,0.62616,0,225,225,138,1,gyűjtemény,KT123,nő,1977.03.10,20,2021-05-13_09h29.20.068,ranlexdec,2020.2.5,Win32,60
,,,,,,,,,,,,right,0.917715,0,226,226,186,1,piláf,KT123,nő,1977.03.10,20,2021-05-13_09h29.20.068,ranlexdec,2020.2.5,Win32,60
,,,,,,,,,,,,right,0.599125,0,227,227,160,1,százalék,KT123,nő,1977.03.10,20,2021-05-13_09h29.20.068,ranlexdec,2020.2.5,Win32,60
,,,,,,,,,,,,right,0.788575,0,228,228,187,1,testnedv,KT123,nő,1977.03.10,20,2021-05-13_09h29.20.068,ranlexdec,2020.2.5,Win32,60
,,,,,,,,,,,,left,1.431715,0,229,229,136,1,rücsök,KT123,nő,1977.03.10,20,2021-05-13_09h29.20.068,ranlexdec,2020.2.5,Win32,60
,,,,,,,,,,,,left,1.25264,0,230,230,117,1,ószeven,KT123,nő,1977.03.10,20,2021-05-13_09h29.20.068,ranlexdec,2020.2.5,Win32,60
,,,,,,,,,,,,left,1.197195,0,231,231,3,1,tömzsa,KT123,nő,1977.03.10,20,2021-05-13_09h29.20.068,ranlexdec,2020.2.5,Win32,60
,,,,,,,,,,,,right,0.587825,0,232,232,183,1,színpad,KT123,nő,1977.03.10,20,2021-05-13_09h29.20.068,ranlexdec,2020.2.5,Win32,60
,,,,,,,,,,,,right,0.89081,0,233,233,215,1,neoprén,KT123,nő,1977.03.10,20,2021-05-13_09h29.20.068,ranlexdec,2020.2.5,Win32,60
,,,,,,,,,,,,right,0.67964,0,234,234,79,1,extrém,KT123,nő,1977.03.10,20,2021-05-13_09h29.20.068,ranlexdec,2020.2.5,Win32,60
,,,,,,,,,,,,right,0.666145,0,235,235,170,1,változik,KT123,nő,1977.03.10,20,2021-05-13_09h29.20.068,ranlexdec,2020.2.5,Win32,60
,,,,,,,,,,,,left,0.76603,0,236,236,24,1,kosi,KT123,nő,1977.03.10,20,2021-05-13_09h29.20.068,ranlexdec,2020.2.5,Win32,60
,,,,,,,,,,,,right,0.67165,0,237,237,41,1,nagybeteg,KT123,nő,1977.03.10,20,2021-05-13_09h29.20.068,ranlexdec,2020.2.5,Win32,60
,,,,,,,,,,,,right,0.87403,0,238,238,235,1,transzplantál,KT123,nő,1977.03.10,20,2021-05-13_09h29.20.068,ranlexdec,2020.2.5,Win32,60
,,,,,,,,,,,,right,1.25032,0,239,239,234,1,fertilis,KT123,nő,1977.03.10,20,2021-05-13_09h29.20.068,ranlexdec,2020.2.5,Win32,60
,,,,,,,,,,,,right,0.723965,0,240,240,174,1,cianid,KT123,nő,1977.03.10,20,2021-05-13_09h29.20.068,ranlexdec,2020.2.5,Win32,60
,,,,,,,,,,,,right,0.898265,0,241,241,115,1,fajansz,KT123,nő,1977.03.10,20,2021-05-13_09h29.20.068,ranlexdec,2020.2.5,Win32,60
,,,,,,,,,,,,right,0.646685,0,242,242,211,1,tábornagy,KT123,nő,1977.03.10,20,2021-05-13_09h29.20.068,ranlexdec,2020.2.5,Win32,60
,,,,,,,,,,,,right,0.98311,0,243,243,88,1,pohár,KT123,nő,1977.03.10,20,2021-05-13_09h29.20.068,ranlexdec,2020.2.5,Win32,60
,,,,,,,,,,,,left,1.00114,0,244,244,166,1,retálhit,KT123,nő,1977.03.10,20,2021-05-13_09h29.20.068,ranlexdec,2020.2.5,Win32,60
,,,,,,,,,,,,right,0.96179,0,245,245,113,1,piktogram,KT123,nő,1977.03.10,20,2021-05-13_09h29.20.068,ranlexdec,2020.2.5,Win32,60
,,,,,,,,,,,,right,1.19885,0,246,246,10,1,nárcisz,KT123,nő,1977.03.10,20,2021-05-13_09h29.20.068,ranlexdec,2020.2.5,Win32,60
,,,,,,,,,,,,right,0.682865,0,247,247,51,1,bajuszfű,KT123,nő,1977.03.10,20,2021-05-13_09h29.20.068,ranlexdec,2020.2.5,Win32,60
,,,,,,,,,,,,right,0.854275,0,248,248,8,1,kulcscsont,KT123,nő,1977.03.10,20,2021-05-13_09h29.20.068,ranlexdec,2020.2.5,Win32,60
,,,,,,,,,,,,right,1.55844,0,249,249,151,1,komplex,KT123,nő,1977.03.10,20,2021-05-13_09h29.20.068,ranlexdec,2020.2.5,Win32,60
