ready2_2.keys,ready2_2.rt,ready2.keys,ready2.rt,key_resp.keys,key_resp.rt,key_resp_3.keys,key_resp_3.rt,key_resp_2.keys,key_resp_2.rt,ready3.keys,ready3.rt,resp.keys,resp.rt,withinBlock.thisRepN,withinBlock.thisTrialN,withinBlock.thisN,withinBlock.thisIndex,withinBlock.ran,word,Azonosító,Az Ön neme,Születési éve,Hány évet töltött az iskolapadban (egyetemet is beleértve),date,expName,psychopyVersion,OS,frameRate
right,34.8852,right,27.77615,right,1.67422,left,0.7657,left,5.850425,right,10.538765,right,2.179585,0,0,0,96,1,alfél,KT109,NŐ,1999.06.01,15,2021-05-13_08h10.38.742,ranlexdec,2020.2.5,Win32,60
,,,,,,,,,,,,right,0.747635,0,1,1,194,1,végbél,KT109,NŐ,1999.06.01,15,2021-05-13_08h10.38.742,ranlexdec,2020.2.5,Win32,60
,,,,,,,,,,,,left,1.40004,0,2,2,109,1,vényegő,KT109,NŐ,1999.06.01,15,2021-05-13_08h10.38.742,ranlexdec,2020.2.5,Win32,60
,,,,,,,,,,,,right,1.11527,0,3,3,14,1,selypít,KT109,NŐ,1999.06.01,15,2021-05-13_08h10.38.742,ranlexdec,2020.2.5,Win32,60
,,,,,,,,,,,,right,0.752215,0,4,4,45,1,népszerű,KT109,NŐ,1999.06.01,15,2021-05-13_08h10.38.742,ranlexdec,2020.2.5,Win32,60
,,,,,,,,,,,,right,1.0635,0,5,5,37,1,lukaszt,KT109,NŐ,1999.06.01,15,2021-05-13_08h10.38.742,ranlexdec,2020.2.5,Win32,60
,,,,,,,,,,,,left,3.184135,0,6,6,240,1,áradmány,KT109,NŐ,1999.06.01,15,2021-05-13_08h10.38.742,ranlexdec,2020.2.5,Win32,60
,,,,,,,,,,,,right,0.596605,0,7,7,231,1,igény,KT109,NŐ,1999.06.01,15,2021-05-13_08h10.38.742,ranlexdec,2020.2.5,Win32,60
,,,,,,,,,,,,left,2.651385,0,8,8,77,1,egant,KT109,NŐ,1999.06.01,15,2021-05-13_08h10.38.742,ranlexdec,2020.2.5,Win32,60
,,,,,,,,,,,,left,1.798355,0,9,9,191,1,hitódó,KT109,NŐ,1999.06.01,15,2021-05-13_08h10.38.742,ranlexdec,2020.2.5,Win32,60
,,,,,,,,,,,,right,0.92979,0,10,10,226,1,szalicil,KT109,NŐ,1999.06.01,15,2021-05-13_08h10.38.742,ranlexdec,2020.2.5,Win32,60
,,,,,,,,,,,,right,0.702475,0,11,11,184,1,profit,KT109,NŐ,1999.06.01,15,2021-05-13_08h10.38.742,ranlexdec,2020.2.5,Win32,60
,,,,,,,,,,,,right,0.672865,0,12,12,126,1,rejtőzik,KT109,NŐ,1999.06.01,15,2021-05-13_08h10.38.742,ranlexdec,2020.2.5,Win32,60
,,,,,,,,,,,,right,0.54044,0,13,13,73,1,olaj,KT109,NŐ,1999.06.01,15,2021-05-13_08h10.38.742,ranlexdec,2020.2.5,Win32,60
,,,,,,,,,,,,right,0.924255,0,14,14,76,1,jegedény,KT109,NŐ,1999.06.01,15,2021-05-13_08h10.38.742,ranlexdec,2020.2.5,Win32,60
,,,,,,,,,,,,right,1.64694,0,15,15,178,1,sziszeg,KT109,NŐ,1999.06.01,15,2021-05-13_08h10.38.742,ranlexdec,2020.2.5,Win32,60
,,,,,,,,,,,,left,1.073375,0,16,16,141,1,hider,KT109,NŐ,1999.06.01,15,2021-05-13_08h10.38.742,ranlexdec,2020.2.5,Win32,60
,,,,,,,,,,,,right,1.515615,0,17,17,9,1,hajlik,KT109,NŐ,1999.06.01,15,2021-05-13_08h10.38.742,ranlexdec,2020.2.5,Win32,60
,,,,,,,,,,,,left,5.39583,0,18,18,150,1,orront,KT109,NŐ,1999.06.01,15,2021-05-13_08h10.38.742,ranlexdec,2020.2.5,Win32,60
,,,,,,,,,,,,right,1.28631,0,19,19,60,1,bárányfark,KT109,NŐ,1999.06.01,15,2021-05-13_08h10.38.742,ranlexdec,2020.2.5,Win32,60
,,,,,,,,,,,,right,0.946255,0,20,20,172,1,kettősfém,KT109,NŐ,1999.06.01,15,2021-05-13_08h10.38.742,ranlexdec,2020.2.5,Win32,60
,,,,,,,,,,,,left,3.09911,0,21,21,192,1,norvend,KT109,NŐ,1999.06.01,15,2021-05-13_08h10.38.742,ranlexdec,2020.2.5,Win32,60
,,,,,,,,,,,,left,2.136455,0,22,22,242,1,rekvizit,KT109,NŐ,1999.06.01,15,2021-05-13_08h10.38.742,ranlexdec,2020.2.5,Win32,60
,,,,,,,,,,,,right,0.878555,0,23,23,98,1,mítosz,KT109,NŐ,1999.06.01,15,2021-05-13_08h10.38.742,ranlexdec,2020.2.5,Win32,60
,,,,,,,,,,,,right,0.71297,0,24,24,59,1,ómagyar,KT109,NŐ,1999.06.01,15,2021-05-13_08h10.38.742,ranlexdec,2020.2.5,Win32,60
,,,,,,,,,,,,right,0.74842,0,25,25,140,1,diktátor,KT109,NŐ,1999.06.01,15,2021-05-13_08h10.38.742,ranlexdec,2020.2.5,Win32,60
,,,,,,,,,,,,right,0.58774,0,26,26,12,1,gyapot,KT109,NŐ,1999.06.01,15,2021-05-13_08h10.38.742,ranlexdec,2020.2.5,Win32,60
,,,,,,,,,,,,right,0.671015,0,27,27,179,1,töredék,KT109,NŐ,1999.06.01,15,2021-05-13_08h10.38.742,ranlexdec,2020.2.5,Win32,60
,,,,,,,,,,,,right,0.800615,0,28,28,34,1,csengettyű,KT109,NŐ,1999.06.01,15,2021-05-13_08h10.38.742,ranlexdec,2020.2.5,Win32,60
,,,,,,,,,,,,right,0.88246,0,29,29,199,1,ború,KT109,NŐ,1999.06.01,15,2021-05-13_08h10.38.742,ranlexdec,2020.2.5,Win32,60
,,,,,,,,,,,,left,1.080275,0,30,30,52,1,kunyai,KT109,NŐ,1999.06.01,15,2021-05-13_08h10.38.742,ranlexdec,2020.2.5,Win32,60
,,,,,,,,,,,,right,1.215195,0,31,31,95,1,skubizik,KT109,NŐ,1999.06.01,15,2021-05-13_08h10.38.742,ranlexdec,2020.2.5,Win32,60
,,,,,,,,,,,,right,1.834595,0,32,32,136,1,rücsök,KT109,NŐ,1999.06.01,15,2021-05-13_08h10.38.742,ranlexdec,2020.2.5,Win32,60
,,,,,,,,,,,,right,0.63012,0,33,33,168,1,grafikon,KT109,NŐ,1999.06.01,15,2021-05-13_08h10.38.742,ranlexdec,2020.2.5,Win32,60
,,,,,,,,,,,,right,0.782765,0,34,34,176,1,bélyeg,KT109,NŐ,1999.06.01,15,2021-05-13_08h10.38.742,ranlexdec,2020.2.5,Win32,60
,,,,,,,,,,,,right,0.579795,0,35,35,201,1,szempont,KT109,NŐ,1999.06.01,15,2021-05-13_08h10.38.742,ranlexdec,2020.2.5,Win32,60
,,,,,,,,,,,,right,0.831305,0,36,36,153,1,kontrapunkt,KT109,NŐ,1999.06.01,15,2021-05-13_08h10.38.742,ranlexdec,2020.2.5,Win32,60
,,,,,,,,,,,,right,1.563805,0,37,37,6,1,csüggeszt,KT109,NŐ,1999.06.01,15,2021-05-13_08h10.38.742,ranlexdec,2020.2.5,Win32,60
,,,,,,,,,,,,left,0.96264,0,38,38,62,1,bizmut,KT109,NŐ,1999.06.01,15,2021-05-13_08h10.38.742,ranlexdec,2020.2.5,Win32,60
,,,,,,,,,,,,right,1.45258,0,39,39,162,1,nimbus,KT109,NŐ,1999.06.01,15,2021-05-13_08h10.38.742,ranlexdec,2020.2.5,Win32,60
,,,,,,,,,,,,left,1.00389,0,40,40,15,1,pauzál,KT109,NŐ,1999.06.01,15,2021-05-13_08h10.38.742,ranlexdec,2020.2.5,Win32,60
,,,,,,,,,,,,right,0.99872,0,41,41,160,1,százalék,KT109,NŐ,1999.06.01,15,2021-05-13_08h10.38.742,ranlexdec,2020.2.5,Win32,60
,,,,,,,,,,,,left,1.89122,0,42,42,3,1,tömzsa,KT109,NŐ,1999.06.01,15,2021-05-13_08h10.38.742,ranlexdec,2020.2.5,Win32,60
,,,,,,,,,,,,left,1.599055,0,43,43,127,1,rozintem,KT109,NŐ,1999.06.01,15,2021-05-13_08h10.38.742,ranlexdec,2020.2.5,Win32,60
,,,,,,,,,,,,right,0.79933,0,44,44,202,1,abszint,KT109,NŐ,1999.06.01,15,2021-05-13_08h10.38.742,ranlexdec,2020.2.5,Win32,60
,,,,,,,,,,,,left,2.465655,0,45,45,134,1,móringol,KT109,NŐ,1999.06.01,15,2021-05-13_08h10.38.742,ranlexdec,2020.2.5,Win32,60
,,,,,,,,,,,,left,0.233305,0,46,46,105,1,tököl,KT109,NŐ,1999.06.01,15,2021-05-13_08h10.38.742,ranlexdec,2020.2.5,Win32,60
,,,,,,,,,,,,right,0.88307,0,47,47,86,1,jármű,KT109,NŐ,1999.06.01,15,2021-05-13_08h10.38.742,ranlexdec,2020.2.5,Win32,60
,,,,,,,,,,,,right,1.12378,0,48,48,144,1,rövid,KT109,NŐ,1999.06.01,15,2021-05-13_08h10.38.742,ranlexdec,2020.2.5,Win32,60
,,,,,,,,,,,,right,1.240205,0,49,49,222,1,nyersarany,KT109,NŐ,1999.06.01,15,2021-05-13_08h10.38.742,ranlexdec,2020.2.5,Win32,60
,,,,,,,,,,,,right,1.079875,0,50,50,43,1,közhely,KT109,NŐ,1999.06.01,15,2021-05-13_08h10.38.742,ranlexdec,2020.2.5,Win32,60
,,,,,,,,,,,,right,1.298785,0,51,51,177,1,pereg,KT109,NŐ,1999.06.01,15,2021-05-13_08h10.38.742,ranlexdec,2020.2.5,Win32,60
,,,,,,,,,,,,right,1.103865,0,52,52,116,1,árus,KT109,NŐ,1999.06.01,15,2021-05-13_08h10.38.742,ranlexdec,2020.2.5,Win32,60
,,,,,,,,,,,,right,0.924105,0,53,53,124,1,alkalom,KT109,NŐ,1999.06.01,15,2021-05-13_08h10.38.742,ranlexdec,2020.2.5,Win32,60
,,,,,,,,,,,,right,1.600835,0,54,54,28,1,gazdag,KT109,NŐ,1999.06.01,15,2021-05-13_08h10.38.742,ranlexdec,2020.2.5,Win32,60
,,,,,,,,,,,,left,1.769465,0,55,55,42,1,összalaj,KT109,NŐ,1999.06.01,15,2021-05-13_08h10.38.742,ranlexdec,2020.2.5,Win32,60
,,,,,,,,,,,,left,1.264125,0,56,56,107,1,kelől,KT109,NŐ,1999.06.01,15,2021-05-13_08h10.38.742,ranlexdec,2020.2.5,Win32,60
,,,,,,,,,,,,left,2.43012,0,57,57,218,1,tortya,KT109,NŐ,1999.06.01,15,2021-05-13_08h10.38.742,ranlexdec,2020.2.5,Win32,60
,,,,,,,,,,,,right,1.063555,0,58,58,200,1,biliárd,KT109,NŐ,1999.06.01,15,2021-05-13_08h10.38.742,ranlexdec,2020.2.5,Win32,60
,,,,,,,,,,,,left,1.912545,0,59,59,112,1,méhezter,KT109,NŐ,1999.06.01,15,2021-05-13_08h10.38.742,ranlexdec,2020.2.5,Win32,60
,,,,,,,,,,,,left,0.71657,0,60,60,49,1,ernyak,KT109,NŐ,1999.06.01,15,2021-05-13_08h10.38.742,ranlexdec,2020.2.5,Win32,60
,,,,,,,,,,,,right,0.7844,0,61,61,99,1,sárgaréz,KT109,NŐ,1999.06.01,15,2021-05-13_08h10.38.742,ranlexdec,2020.2.5,Win32,60
,,,,,,,,,,,,left,1.52961,0,62,62,65,1,infimum,KT109,NŐ,1999.06.01,15,2021-05-13_08h10.38.742,ranlexdec,2020.2.5,Win32,60
,,,,,,,,,,,,right,1.20087,0,63,63,128,1,csüggedez,KT109,NŐ,1999.06.01,15,2021-05-13_08h10.38.742,ranlexdec,2020.2.5,Win32,60
,,,,,,,,,,,,right,0.71439,0,64,64,196,1,dolgozik,KT109,NŐ,1999.06.01,15,2021-05-13_08h10.38.742,ranlexdec,2020.2.5,Win32,60
,,,,,,,,,,,,right,1.215195,0,65,65,113,1,piktogram,KT109,NŐ,1999.06.01,15,2021-05-13_08h10.38.742,ranlexdec,2020.2.5,Win32,60
,,,,,,,,,,,,right,1.869065,0,66,66,74,1,püffeszt,KT109,NŐ,1999.06.01,15,2021-05-13_08h10.38.742,ranlexdec,2020.2.5,Win32,60
,,,,,,,,,,,,left,0.98175,0,67,67,46,1,kurzív,KT109,NŐ,1999.06.01,15,2021-05-13_08h10.38.742,ranlexdec,2020.2.5,Win32,60
,,,,,,,,,,,,right,2.53114,0,68,68,30,1,dádá,KT109,NŐ,1999.06.01,15,2021-05-13_08h10.38.742,ranlexdec,2020.2.5,Win32,60
,,,,,,,,,,,,right,1.20639,0,69,69,158,1,hidroxid,KT109,NŐ,1999.06.01,15,2021-05-13_08h10.38.742,ranlexdec,2020.2.5,Win32,60
,,,,,,,,,,,,left,1.696595,0,70,70,121,1,aggófű,KT109,NŐ,1999.06.01,15,2021-05-13_08h10.38.742,ranlexdec,2020.2.5,Win32,60
,,,,,,,,,,,,left,3.00723,0,71,71,97,1,vésségi,KT109,NŐ,1999.06.01,15,2021-05-13_08h10.38.742,ranlexdec,2020.2.5,Win32,60
,,,,,,,,,,,,left,2.880925,0,72,72,35,1,türemlik,KT109,NŐ,1999.06.01,15,2021-05-13_08h10.38.742,ranlexdec,2020.2.5,Win32,60
,,,,,,,,,,,,left,1.13164,0,73,73,81,1,takorák,KT109,NŐ,1999.06.01,15,2021-05-13_08h10.38.742,ranlexdec,2020.2.5,Win32,60
,,,,,,,,,,,,right,0.58069,0,74,74,80,1,darab,KT109,NŐ,1999.06.01,15,2021-05-13_08h10.38.742,ranlexdec,2020.2.5,Win32,60
,,,,,,,,,,,,right,0.79007,0,75,75,11,1,viszkóz,KT109,NŐ,1999.06.01,15,2021-05-13_08h10.38.742,ranlexdec,2020.2.5,Win32,60
,,,,,,,,,,,,left,2.292425,0,76,76,139,1,vároló,KT109,NŐ,1999.06.01,15,2021-05-13_08h10.38.742,ranlexdec,2020.2.5,Win32,60
,,,,,,,,,,,,right,0.837755,0,77,77,183,1,színpad,KT109,NŐ,1999.06.01,15,2021-05-13_08h10.38.742,ranlexdec,2020.2.5,Win32,60
,,,,,,,,,,,,right,0.68937,0,78,78,213,1,eszköz,KT109,NŐ,1999.06.01,15,2021-05-13_08h10.38.742,ranlexdec,2020.2.5,Win32,60
,,,,,,,,,,,,right,0.886415,0,79,79,85,1,glükóz,KT109,NŐ,1999.06.01,15,2021-05-13_08h10.38.742,ranlexdec,2020.2.5,Win32,60
,,,,,,,,,,,,right,0.874025,0,80,80,206,1,horizont,KT109,NŐ,1999.06.01,15,2021-05-13_08h10.38.742,ranlexdec,2020.2.5,Win32,60
,,,,,,,,,,,,left,1.428525,0,81,81,181,1,dohorpák,KT109,NŐ,1999.06.01,15,2021-05-13_08h10.38.742,ranlexdec,2020.2.5,Win32,60
,,,,,,,,,,,,left,1.17997,0,82,82,133,1,hübrisz,KT109,NŐ,1999.06.01,15,2021-05-13_08h10.38.742,ranlexdec,2020.2.5,Win32,60
,,,,,,,,,,,,right,0.781225,0,83,83,220,1,csontdarab,KT109,NŐ,1999.06.01,15,2021-05-13_08h10.38.742,ranlexdec,2020.2.5,Win32,60
,,,,,,,,,,,,left,0.996615,0,84,84,5,1,retta,KT109,NŐ,1999.06.01,15,2021-05-13_08h10.38.742,ranlexdec,2020.2.5,Win32,60
,,,,,,,,,,,,right,1.52993,0,85,85,156,1,lazúroz,KT109,NŐ,1999.06.01,15,2021-05-13_08h10.38.742,ranlexdec,2020.2.5,Win32,60
,,,,,,,,,,,,left,0.748335,0,86,86,125,1,úszamos,KT109,NŐ,1999.06.01,15,2021-05-13_08h10.38.742,ranlexdec,2020.2.5,Win32,60
,,,,,,,,,,,,left,1.700195,0,87,87,118,1,libling,KT109,NŐ,1999.06.01,15,2021-05-13_08h10.38.742,ranlexdec,2020.2.5,Win32,60
,,,,,,,,,,,,left,1.232995,0,88,88,24,1,kosi,KT109,NŐ,1999.06.01,15,2021-05-13_08h10.38.742,ranlexdec,2020.2.5,Win32,60
,,,,,,,,,,,,right,0.671475,0,89,89,79,1,extrém,KT109,NŐ,1999.06.01,15,2021-05-13_08h10.38.742,ranlexdec,2020.2.5,Win32,60
,,,,,,,,,,,,left,2.4624,0,90,90,131,1,vetézmés,KT109,NŐ,1999.06.01,15,2021-05-13_08h10.38.742,ranlexdec,2020.2.5,Win32,60
,,,,,,,,,,,,right,2.19719,0,91,91,89,1,szokik,KT109,NŐ,1999.06.01,15,2021-05-13_08h10.38.742,ranlexdec,2020.2.5,Win32,60
,,,,,,,,,,,,right,1.499065,0,92,92,212,1,farkasbab,KT109,NŐ,1999.06.01,15,2021-05-13_08h10.38.742,ranlexdec,2020.2.5,Win32,60
,,,,,,,,,,,,left,1.44601,0,93,93,119,1,cugehőr,KT109,NŐ,1999.06.01,15,2021-05-13_08h10.38.742,ranlexdec,2020.2.5,Win32,60
,,,,,,,,,,,,right,0.81276,0,94,94,129,1,turné,KT109,NŐ,1999.06.01,15,2021-05-13_08h10.38.742,ranlexdec,2020.2.5,Win32,60
,,,,,,,,,,,,left,1.08362,0,95,95,40,1,diviz,KT109,NŐ,1999.06.01,15,2021-05-13_08h10.38.742,ranlexdec,2020.2.5,Win32,60
,,,,,,,,,,,,right,0.74674,0,96,96,122,1,égitest,KT109,NŐ,1999.06.01,15,2021-05-13_08h10.38.742,ranlexdec,2020.2.5,Win32,60
,,,,,,,,,,,,right,0.76134,0,97,97,171,1,újgazdag,KT109,NŐ,1999.06.01,15,2021-05-13_08h10.38.742,ranlexdec,2020.2.5,Win32,60
,,,,,,,,,,,,left,1.081,0,98,98,224,1,truccol,KT109,NŐ,1999.06.01,15,2021-05-13_08h10.38.742,ranlexdec,2020.2.5,Win32,60
,,,,,,,,,,,,right,0.73566,0,99,99,67,1,szegény,KT109,NŐ,1999.06.01,15,2021-05-13_08h10.38.742,ranlexdec,2020.2.5,Win32,60
,,,,,,,,,,,,left,1.34552,0,100,100,203,1,abeti,KT109,NŐ,1999.06.01,15,2021-05-13_08h10.38.742,ranlexdec,2020.2.5,Win32,60
,,,,,,,,,,,,right,1.564325,0,101,101,223,1,árstop,KT109,NŐ,1999.06.01,15,2021-05-13_08h10.38.742,ranlexdec,2020.2.5,Win32,60
,,,,,,,,,,,,right,1.01851,0,102,102,189,1,konverzál,KT109,NŐ,1999.06.01,15,2021-05-13_08h10.38.742,ranlexdec,2020.2.5,Win32,60
,,,,,,,,,,,,right,0.63855,0,103,103,154,1,keresztény,KT109,NŐ,1999.06.01,15,2021-05-13_08h10.38.742,ranlexdec,2020.2.5,Win32,60
,,,,,,,,,,,,right,2.95164,0,104,104,10,1,nárcisz,KT109,NŐ,1999.06.01,15,2021-05-13_08h10.38.742,ranlexdec,2020.2.5,Win32,60
,,,,,,,,,,,,left,1.46368,0,105,105,149,1,anorák,KT109,NŐ,1999.06.01,15,2021-05-13_08h10.38.742,ranlexdec,2020.2.5,Win32,60
,,,,,,,,,,,,right,1.173735,0,106,106,165,1,lépték,KT109,NŐ,1999.06.01,15,2021-05-13_08h10.38.742,ranlexdec,2020.2.5,Win32,60
,,,,,,,,,,,,left,0.237315,0,107,107,175,1,szilikát,KT109,NŐ,1999.06.01,15,2021-05-13_08h10.38.742,ranlexdec,2020.2.5,Win32,60
,,,,,,,,,,,,left,2.08006,0,108,108,229,1,lemesség,KT109,NŐ,1999.06.01,15,2021-05-13_08h10.38.742,ranlexdec,2020.2.5,Win32,60
,,,,,,,,,,,,left,1.196915,0,109,109,101,1,nukleon,KT109,NŐ,1999.06.01,15,2021-05-13_08h10.38.742,ranlexdec,2020.2.5,Win32,60
,,,,,,,,,,,,right,0.69827,0,110,110,130,1,derít,KT109,NŐ,1999.06.01,15,2021-05-13_08h10.38.742,ranlexdec,2020.2.5,Win32,60
,,,,,,,,,,,,right,4.589025,0,111,111,161,1,példakép,KT109,NŐ,1999.06.01,15,2021-05-13_08h10.38.742,ranlexdec,2020.2.5,Win32,60
,,,,,,,,,,,,right,1.26445,0,112,112,188,1,sugár,KT109,NŐ,1999.06.01,15,2021-05-13_08h10.38.742,ranlexdec,2020.2.5,Win32,60
,,,,,,,,,,,,left,2.2717,0,113,113,215,1,neoprén,KT109,NŐ,1999.06.01,15,2021-05-13_08h10.38.742,ranlexdec,2020.2.5,Win32,60
,,,,,,,,,,,,left,1.34771,0,114,114,83,1,vonzum,KT109,NŐ,1999.06.01,15,2021-05-13_08h10.38.742,ranlexdec,2020.2.5,Win32,60
,,,,,,,,,,,,right,0.79223,0,115,115,214,1,tenger,KT109,NŐ,1999.06.01,15,2021-05-13_08h10.38.742,ranlexdec,2020.2.5,Win32,60
,,,,,,,,,,,,right,0.767325,0,116,116,31,1,iszlám,KT109,NŐ,1999.06.01,15,2021-05-13_08h10.38.742,ranlexdec,2020.2.5,Win32,60
,,,,,,,,,,,,left,6.16669,0,117,117,146,1,kondenzcsík,KT109,NŐ,1999.06.01,15,2021-05-13_08h10.38.742,ranlexdec,2020.2.5,Win32,60
,,,,,,,,,,,,right,0.841885,0,118,118,248,1,örmény,KT109,NŐ,1999.06.01,15,2021-05-13_08h10.38.742,ranlexdec,2020.2.5,Win32,60
,,,,,,,,,,,,right,1.088205,0,119,119,193,1,bacon,KT109,NŐ,1999.06.01,15,2021-05-13_08h10.38.742,ranlexdec,2020.2.5,Win32,60
,,,,,,,,,,,,left,1.646795,0,120,120,66,1,parkkói,KT109,NŐ,1999.06.01,15,2021-05-13_08h10.38.742,ranlexdec,2020.2.5,Win32,60
,,,,,,,,,,,,right,0.703145,0,121,121,110,1,időszak,KT109,NŐ,1999.06.01,15,2021-05-13_08h10.38.742,ranlexdec,2020.2.5,Win32,60
,,,,,,,,,,,,right,0.86465,0,122,122,54,1,fürkész,KT109,NŐ,1999.06.01,15,2021-05-13_08h10.38.742,ranlexdec,2020.2.5,Win32,60
,,,,,,,,,,,,left,2.72914,0,123,123,18,1,csapattest,KT109,NŐ,1999.06.01,15,2021-05-13_08h10.38.742,ranlexdec,2020.2.5,Win32,60
,,,,,,,,,,,,right,0.94233,0,124,124,64,1,hálózsák,KT109,NŐ,1999.06.01,15,2021-05-13_08h10.38.742,ranlexdec,2020.2.5,Win32,60
,,,,,,,,,,,,left,1.41443,0,125,125,75,1,karnogó,KT109,NŐ,1999.06.01,15,2021-05-13_08h10.38.742,ranlexdec,2020.2.5,Win32,60
,,,,,,,,,,,,left,1.629455,0,126,126,108,1,konyrúd,KT109,NŐ,1999.06.01,15,2021-05-13_08h10.38.742,ranlexdec,2020.2.5,Win32,60
,,,,,,,,,,,,right,2.257625,0,127,127,174,1,cianid,KT109,NŐ,1999.06.01,15,2021-05-13_08h10.38.742,ranlexdec,2020.2.5,Win32,60
,,,,,,,,,,,,left,1.331965,0,128,128,17,1,magmatit,KT109,NŐ,1999.06.01,15,2021-05-13_08h10.38.742,ranlexdec,2020.2.5,Win32,60
,,,,,,,,,,,,right,0.93142,0,129,129,19,1,tangózik,KT109,NŐ,1999.06.01,15,2021-05-13_08h10.38.742,ranlexdec,2020.2.5,Win32,60
,,,,,,,,,,,,left,1.503405,0,130,130,2,1,gyásos,KT109,NŐ,1999.06.01,15,2021-05-13_08h10.38.742,ranlexdec,2020.2.5,Win32,60
,,,,,,,,,,,,right,1.28857,0,131,131,138,1,gyűjtemény,KT109,NŐ,1999.06.01,15,2021-05-13_08h10.38.742,ranlexdec,2020.2.5,Win32,60
,,,,,,,,,,,,right,1.36418,0,132,132,123,1,luftballon,KT109,NŐ,1999.06.01,15,2021-05-13_08h10.38.742,ranlexdec,2020.2.5,Win32,60
,,,,,,,,,,,,left,1.0661,0,133,133,102,1,pentez,KT109,NŐ,1999.06.01,15,2021-05-13_08h10.38.742,ranlexdec,2020.2.5,Win32,60
,,,,,,,,,,,,right,1.038575,0,134,134,135,1,ion,KT109,NŐ,1999.06.01,15,2021-05-13_08h10.38.742,ranlexdec,2020.2.5,Win32,60
,,,,,,,,,,,,right,1.03224,0,135,135,148,1,mellényzseb,KT109,NŐ,1999.06.01,15,2021-05-13_08h10.38.742,ranlexdec,2020.2.5,Win32,60
,,,,,,,,,,,,right,1.10056,0,136,136,27,1,sporthorgász,KT109,NŐ,1999.06.01,15,2021-05-13_08h10.38.742,ranlexdec,2020.2.5,Win32,60
,,,,,,,,,,,,left,2.11414,0,137,137,23,1,szelégül,KT109,NŐ,1999.06.01,15,2021-05-13_08h10.38.742,ranlexdec,2020.2.5,Win32,60
,,,,,,,,,,,,right,1.21448,0,138,138,78,1,törékeny,KT109,NŐ,1999.06.01,15,2021-05-13_08h10.38.742,ranlexdec,2020.2.5,Win32,60
,,,,,,,,,,,,left,1.06657,0,139,139,217,1,ifjít,KT109,NŐ,1999.06.01,15,2021-05-13_08h10.38.742,ranlexdec,2020.2.5,Win32,60
,,,,,,,,,,,,right,0.647875,0,140,140,246,1,beton,KT109,NŐ,1999.06.01,15,2021-05-13_08h10.38.742,ranlexdec,2020.2.5,Win32,60
,,,,,,,,,,,,right,0.89769,0,141,141,33,1,kalcium,KT109,NŐ,1999.06.01,15,2021-05-13_08h10.38.742,ranlexdec,2020.2.5,Win32,60
,,,,,,,,,,,,left,0.727855,0,142,142,71,1,extuál,KT109,NŐ,1999.06.01,15,2021-05-13_08h10.38.742,ranlexdec,2020.2.5,Win32,60
,,,,,,,,,,,,right,0.64745,0,143,143,0,1,irány,KT109,NŐ,1999.06.01,15,2021-05-13_08h10.38.742,ranlexdec,2020.2.5,Win32,60
,,,,,,,,,,,,right,0.879665,0,144,144,48,1,reagál,KT109,NŐ,1999.06.01,15,2021-05-13_08h10.38.742,ranlexdec,2020.2.5,Win32,60
,,,,,,,,,,,,right,1.13382,0,145,145,115,1,fajansz,KT109,NŐ,1999.06.01,15,2021-05-13_08h10.38.742,ranlexdec,2020.2.5,Win32,60
,,,,,,,,,,,,left,0.82358,0,146,146,26,1,aurult,KT109,NŐ,1999.06.01,15,2021-05-13_08h10.38.742,ranlexdec,2020.2.5,Win32,60
,,,,,,,,,,,,left,0.96467,0,147,147,16,1,cséltás,KT109,NŐ,1999.06.01,15,2021-05-13_08h10.38.742,ranlexdec,2020.2.5,Win32,60
,,,,,,,,,,,,left,1.272895,0,148,148,51,1,bajuszfű,KT109,NŐ,1999.06.01,15,2021-05-13_08h10.38.742,ranlexdec,2020.2.5,Win32,60
,,,,,,,,,,,,right,0.764705,0,149,149,245,1,ellenfél,KT109,NŐ,1999.06.01,15,2021-05-13_08h10.38.742,ranlexdec,2020.2.5,Win32,60
,,,,,,,,,,,,left,1.19126,0,150,150,173,1,glosszáz,KT109,NŐ,1999.06.01,15,2021-05-13_08h10.38.742,ranlexdec,2020.2.5,Win32,60
,,,,,,,,,,,,left,4.31129,0,151,151,68,1,kitin,KT109,NŐ,1999.06.01,15,2021-05-13_08h10.38.742,ranlexdec,2020.2.5,Win32,60
,,,,,,,,,,,,right,0.80464,0,152,152,61,1,régész,KT109,NŐ,1999.06.01,15,2021-05-13_08h10.38.742,ranlexdec,2020.2.5,Win32,60
,,,,,,,,,,,,right,0.885385,0,153,153,92,1,lágyék,KT109,NŐ,1999.06.01,15,2021-05-13_08h10.38.742,ranlexdec,2020.2.5,Win32,60
,,,,,,,,,,,,left,1.12046,0,154,154,84,1,kúpol,KT109,NŐ,1999.06.01,15,2021-05-13_08h10.38.742,ranlexdec,2020.2.5,Win32,60
,,,,,,,,,,,,left,1.01388,0,155,155,82,1,kvéker,KT109,NŐ,1999.06.01,15,2021-05-13_08h10.38.742,ranlexdec,2020.2.5,Win32,60
,,,,,,,,,,,,left,0.79903,0,156,156,216,1,svábtök,KT109,NŐ,1999.06.01,15,2021-05-13_08h10.38.742,ranlexdec,2020.2.5,Win32,60
,,,,,,,,,,,,left,0.76813,0,157,157,205,1,mimézis,KT109,NŐ,1999.06.01,15,2021-05-13_08h10.38.742,ranlexdec,2020.2.5,Win32,60
,,,,,,,,,,,,left,1.657695,0,158,158,103,1,szabotró,KT109,NŐ,1999.06.01,15,2021-05-13_08h10.38.742,ranlexdec,2020.2.5,Win32,60
,,,,,,,,,,,,right,1.082425,0,159,159,237,1,forgórész,KT109,NŐ,1999.06.01,15,2021-05-13_08h10.38.742,ranlexdec,2020.2.5,Win32,60
,,,,,,,,,,,,left,5.294485,0,160,160,70,1,lakotthely,KT109,NŐ,1999.06.01,15,2021-05-13_08h10.38.742,ranlexdec,2020.2.5,Win32,60
,,,,,,,,,,,,left,0.96594,0,161,161,142,1,storítő,KT109,NŐ,1999.06.01,15,2021-05-13_08h10.38.742,ranlexdec,2020.2.5,Win32,60
,,,,,,,,,,,,left,5.478235,0,162,162,190,1,rámáz,KT109,NŐ,1999.06.01,15,2021-05-13_08h10.38.742,ranlexdec,2020.2.5,Win32,60
,,,,,,,,,,,,right,1.52402,0,163,163,13,1,törköly,KT109,NŐ,1999.06.01,15,2021-05-13_08h10.38.742,ranlexdec,2020.2.5,Win32,60
,,,,,,,,,,,,right,0.03813,0,164,164,143,1,rojtoz,KT109,NŐ,1999.06.01,15,2021-05-13_08h10.38.742,ranlexdec,2020.2.5,Win32,60
,,,,,,,,,,,,left,6.072345,0,165,165,94,1,rotor,KT109,NŐ,1999.06.01,15,2021-05-13_08h10.38.742,ranlexdec,2020.2.5,Win32,60
,,,,,,,,,,,,right,0.717575,0,166,166,152,1,rakódik,KT109,NŐ,1999.06.01,15,2021-05-13_08h10.38.742,ranlexdec,2020.2.5,Win32,60
,,,,,,,,,,,,left,2.217695,0,167,167,106,1,lalláz,KT109,NŐ,1999.06.01,15,2021-05-13_08h10.38.742,ranlexdec,2020.2.5,Win32,60
,,,,,,,,,,,,right,1.151005,0,168,168,55,1,látszik,KT109,NŐ,1999.06.01,15,2021-05-13_08h10.38.742,ranlexdec,2020.2.5,Win32,60
,,,,,,,,,,,,right,0.662565,0,169,169,244,1,kislány,KT109,NŐ,1999.06.01,15,2021-05-13_08h10.38.742,ranlexdec,2020.2.5,Win32,60
,,,,,,,,,,,,left,2.22212,0,170,170,219,1,szimboló,KT109,NŐ,1999.06.01,15,2021-05-13_08h10.38.742,ranlexdec,2020.2.5,Win32,60
,,,,,,,,,,,,right,0.784415,0,171,171,221,1,törődik,KT109,NŐ,1999.06.01,15,2021-05-13_08h10.38.742,ranlexdec,2020.2.5,Win32,60
,,,,,,,,,,,,right,1.6348,0,172,172,145,1,kurtít,KT109,NŐ,1999.06.01,15,2021-05-13_08h10.38.742,ranlexdec,2020.2.5,Win32,60
,,,,,,,,,,,,right,1.000865,0,173,173,53,1,puritán,KT109,NŐ,1999.06.01,15,2021-05-13_08h10.38.742,ranlexdec,2020.2.5,Win32,60
,,,,,,,,,,,,right,0.95119,0,174,174,120,1,komál,KT109,NŐ,1999.06.01,15,2021-05-13_08h10.38.742,ranlexdec,2020.2.5,Win32,60
,,,,,,,,,,,,right,1.067555,0,175,175,157,1,káder,KT109,NŐ,1999.06.01,15,2021-05-13_08h10.38.742,ranlexdec,2020.2.5,Win32,60
,,,,,,,,,,,,right,0.897695,0,176,176,56,1,kanalaz,KT109,NŐ,1999.06.01,15,2021-05-13_08h10.38.742,ranlexdec,2020.2.5,Win32,60
,,,,,,,,,,,,right,0.57301,0,177,177,88,1,pohár,KT109,NŐ,1999.06.01,15,2021-05-13_08h10.38.742,ranlexdec,2020.2.5,Win32,60
,,,,,,,,,,,,left,1.33371,0,178,178,164,1,kurzivál,KT109,NŐ,1999.06.01,15,2021-05-13_08h10.38.742,ranlexdec,2020.2.5,Win32,60
,,,,,,,,,,,,right,1.14027,0,179,179,238,1,bolgár,KT109,NŐ,1999.06.01,15,2021-05-13_08h10.38.742,ranlexdec,2020.2.5,Win32,60
,,,,,,,,,,,,right,1.034385,0,180,180,22,1,arzénsav,KT109,NŐ,1999.06.01,15,2021-05-13_08h10.38.742,ranlexdec,2020.2.5,Win32,60
,,,,,,,,,,,,left,1.781535,0,181,181,137,1,aragas,KT109,NŐ,1999.06.01,15,2021-05-13_08h10.38.742,ranlexdec,2020.2.5,Win32,60
,,,,,,,,,,,,left,2.75131,0,182,182,72,1,mihálóz,KT109,NŐ,1999.06.01,15,2021-05-13_08h10.38.742,ranlexdec,2020.2.5,Win32,60
,,,,,,,,,,,,right,0.95065,0,183,183,211,1,tábornagy,KT109,NŐ,1999.06.01,15,2021-05-13_08h10.38.742,ranlexdec,2020.2.5,Win32,60
,,,,,,,,,,,,left,1.081655,0,184,184,167,1,vabank,KT109,NŐ,1999.06.01,15,2021-05-13_08h10.38.742,ranlexdec,2020.2.5,Win32,60
,,,,,,,,,,,,left,1.118095,0,185,185,195,1,petél,KT109,NŐ,1999.06.01,15,2021-05-13_08h10.38.742,ranlexdec,2020.2.5,Win32,60
,,,,,,,,,,,,right,1.80061,0,186,186,4,1,viszonvád,KT109,NŐ,1999.06.01,15,2021-05-13_08h10.38.742,ranlexdec,2020.2.5,Win32,60
,,,,,,,,,,,,right,0.400805,0,187,187,114,1,tartalom,KT109,NŐ,1999.06.01,15,2021-05-13_08h10.38.742,ranlexdec,2020.2.5,Win32,60
,,,,,,,,,,,,right,0.91816,0,188,188,100,1,balközép,KT109,NŐ,1999.06.01,15,2021-05-13_08h10.38.742,ranlexdec,2020.2.5,Win32,60
,,,,,,,,,,,,right,0.710645,0,189,189,20,1,század,KT109,NŐ,1999.06.01,15,2021-05-13_08h10.38.742,ranlexdec,2020.2.5,Win32,60
,,,,,,,,,,,,right,0.81068,0,190,190,187,1,testnedv,KT109,NŐ,1999.06.01,15,2021-05-13_08h10.38.742,ranlexdec,2020.2.5,Win32,60
,,,,,,,,,,,,right,0.650165,0,191,191,7,1,űrlap,KT109,NŐ,1999.06.01,15,2021-05-13_08h10.38.742,ranlexdec,2020.2.5,Win32,60
,,,,,,,,,,,,right,0.598985,0,192,192,132,1,hatalom,KT109,NŐ,1999.06.01,15,2021-05-13_08h10.38.742,ranlexdec,2020.2.5,Win32,60
,,,,,,,,,,,,left,4.28241,0,193,193,32,1,genom,KT109,NŐ,1999.06.01,15,2021-05-13_08h10.38.742,ranlexdec,2020.2.5,Win32,60
,,,,,,,,,,,,left,1.32747,0,194,194,29,1,novagár,KT109,NŐ,1999.06.01,15,2021-05-13_08h10.38.742,ranlexdec,2020.2.5,Win32,60
,,,,,,,,,,,,right,2.65135,0,195,195,1,1,csapdáz,KT109,NŐ,1999.06.01,15,2021-05-13_08h10.38.742,ranlexdec,2020.2.5,Win32,60
,,,,,,,,,,,,right,0.85813,0,196,196,185,1,gyülemlik,KT109,NŐ,1999.06.01,15,2021-05-13_08h10.38.742,ranlexdec,2020.2.5,Win32,60
,,,,,,,,,,,,right,0.68735,0,197,197,8,1,kulcscsont,KT109,NŐ,1999.06.01,15,2021-05-13_08h10.38.742,ranlexdec,2020.2.5,Win32,60
,,,,,,,,,,,,right,0.831705,0,198,198,241,1,kárpit,KT109,NŐ,1999.06.01,15,2021-05-13_08h10.38.742,ranlexdec,2020.2.5,Win32,60
,,,,,,,,,,,,left,1.456775,0,199,199,204,1,kocskesi,KT109,NŐ,1999.06.01,15,2021-05-13_08h10.38.742,ranlexdec,2020.2.5,Win32,60
,,,,,,,,,,,,right,0.614725,0,200,200,197,1,krakéler,KT109,NŐ,1999.06.01,15,2021-05-13_08h10.38.742,ranlexdec,2020.2.5,Win32,60
,,,,,,,,,,,,left,11.17565,0,201,201,38,1,zomogyi,KT109,NŐ,1999.06.01,15,2021-05-13_08h10.38.742,ranlexdec,2020.2.5,Win32,60
,,,,,,,,,,,,right,1.88362,0,202,202,239,1,donhuán,KT109,NŐ,1999.06.01,15,2021-05-13_08h10.38.742,ranlexdec,2020.2.5,Win32,60
,,,,,,,,,,,,right,0.901235,0,203,203,41,1,nagybeteg,KT109,NŐ,1999.06.01,15,2021-05-13_08h10.38.742,ranlexdec,2020.2.5,Win32,60
,,,,,,,,,,,,left,3.54983,0,204,204,147,1,referál,KT109,NŐ,1999.06.01,15,2021-05-13_08h10.38.742,ranlexdec,2020.2.5,Win32,60
,,,,,,,,,,,,right,2.450085,0,205,205,209,1,hidegház,KT109,NŐ,1999.06.01,15,2021-05-13_08h10.38.742,ranlexdec,2020.2.5,Win32,60
,,,,,,,,,,,,left,3.64975,0,206,206,50,1,csenyei,KT109,NŐ,1999.06.01,15,2021-05-13_08h10.38.742,ranlexdec,2020.2.5,Win32,60
,,,,,,,,,,,,right,0.700855,0,207,207,169,1,komoly,KT109,NŐ,1999.06.01,15,2021-05-13_08h10.38.742,ranlexdec,2020.2.5,Win32,60
,,,,,,,,,,,,left,1.100215,0,208,208,57,1,lejmol,KT109,NŐ,1999.06.01,15,2021-05-13_08h10.38.742,ranlexdec,2020.2.5,Win32,60
,,,,,,,,,,,,left,0.98464,0,209,209,117,1,ószeven,KT109,NŐ,1999.06.01,15,2021-05-13_08h10.38.742,ranlexdec,2020.2.5,Win32,60
,,,,,,,,,,,,right,0.93511,0,210,210,90,1,orális,KT109,NŐ,1999.06.01,15,2021-05-13_08h10.38.742,ranlexdec,2020.2.5,Win32,60
,,,,,,,,,,,,right,1.6025,0,211,211,159,1,elegy,KT109,NŐ,1999.06.01,15,2021-05-13_08h10.38.742,ranlexdec,2020.2.5,Win32,60
,,,,,,,,,,,,left,1.0353,0,212,212,243,1,dipeptid,KT109,NŐ,1999.06.01,15,2021-05-13_08h10.38.742,ranlexdec,2020.2.5,Win32,60
,,,,,,,,,,,,right,1.150885,0,213,213,87,1,forrpont,KT109,NŐ,1999.06.01,15,2021-05-13_08h10.38.742,ranlexdec,2020.2.5,Win32,60
,,,,,,,,,,,,right,3.668585,0,214,214,210,1,karakter,KT109,NŐ,1999.06.01,15,2021-05-13_08h10.38.742,ranlexdec,2020.2.5,Win32,60
,,,,,,,,,,,,left,1.62569,0,215,215,225,1,bajadér,KT109,NŐ,1999.06.01,15,2021-05-13_08h10.38.742,ranlexdec,2020.2.5,Win32,60
,,,,,,,,,,,,left,1.600905,0,216,216,21,1,heveny,KT109,NŐ,1999.06.01,15,2021-05-13_08h10.38.742,ranlexdec,2020.2.5,Win32,60
,,,,,,,,,,,,right,0.783605,0,217,217,182,1,nagyszámú,KT109,NŐ,1999.06.01,15,2021-05-13_08h10.38.742,ranlexdec,2020.2.5,Win32,60
,,,,,,,,,,,,left,0.81662,0,218,218,36,1,tröshet,KT109,NŐ,1999.06.01,15,2021-05-13_08h10.38.742,ranlexdec,2020.2.5,Win32,60
,,,,,,,,,,,,right,4.08253,0,219,219,233,1,templomoz,KT109,NŐ,1999.06.01,15,2021-05-13_08h10.38.742,ranlexdec,2020.2.5,Win32,60
,,,,,,,,,,,,left,3.1278,0,220,220,93,1,kilukát,KT109,NŐ,1999.06.01,15,2021-05-13_08h10.38.742,ranlexdec,2020.2.5,Win32,60
,,,,,,,,,,,,left,2.856215,0,221,221,163,1,kollapszus,KT109,NŐ,1999.06.01,15,2021-05-13_08h10.38.742,ranlexdec,2020.2.5,Win32,60
,,,,,,,,,,,,right,1.11872,0,222,222,236,1,csatázik,KT109,NŐ,1999.06.01,15,2021-05-13_08h10.38.742,ranlexdec,2020.2.5,Win32,60
,,,,,,,,,,,,right,1.716685,0,223,223,208,1,lélek,KT109,NŐ,1999.06.01,15,2021-05-13_08h10.38.742,ranlexdec,2020.2.5,Win32,60
,,,,,,,,,,,,left,3.90064,0,224,224,166,1,retálhit,KT109,NŐ,1999.06.01,15,2021-05-13_08h10.38.742,ranlexdec,2020.2.5,Win32,60
,,,,,,,,,,,,right,0.77839,0,225,225,170,1,változik,KT109,NŐ,1999.06.01,15,2021-05-13_08h10.38.742,ranlexdec,2020.2.5,Win32,60
,,,,,,,,,,,,left,2.51576,0,226,226,207,1,diffamál,KT109,NŐ,1999.06.01,15,2021-05-13_08h10.38.742,ranlexdec,2020.2.5,Win32,60
,,,,,,,,,,,,right,2.9887,0,227,227,69,1,gerencsér,KT109,NŐ,1999.06.01,15,2021-05-13_08h10.38.742,ranlexdec,2020.2.5,Win32,60
,,,,,,,,,,,,left,5.886215,0,228,228,232,1,tropikus,KT109,NŐ,1999.06.01,15,2021-05-13_08h10.38.742,ranlexdec,2020.2.5,Win32,60
,,,,,,,,,,,,right,1.584165,0,229,229,249,1,kencéz,KT109,NŐ,1999.06.01,15,2021-05-13_08h10.38.742,ranlexdec,2020.2.5,Win32,60
,,,,,,,,,,,,right,0.96795,0,230,230,25,1,reform,KT109,NŐ,1999.06.01,15,2021-05-13_08h10.38.742,ranlexdec,2020.2.5,Win32,60
,,,,,,,,,,,,left,1.034365,0,231,231,234,1,fertilis,KT109,NŐ,1999.06.01,15,2021-05-13_08h10.38.742,ranlexdec,2020.2.5,Win32,60
,,,,,,,,,,,,right,0.784965,0,232,232,151,1,komplex,KT109,NŐ,1999.06.01,15,2021-05-13_08h10.38.742,ranlexdec,2020.2.5,Win32,60
,,,,,,,,,,,,left,1.65124,0,233,233,91,1,tajtásos,KT109,NŐ,1999.06.01,15,2021-05-13_08h10.38.742,ranlexdec,2020.2.5,Win32,60
,,,,,,,,,,,,right,1.90054,0,234,234,227,1,kötődik,KT109,NŐ,1999.06.01,15,2021-05-13_08h10.38.742,ranlexdec,2020.2.5,Win32,60
,,,,,,,,,,,,left,1.334945,0,235,235,198,1,lublika,KT109,NŐ,1999.06.01,15,2021-05-13_08h10.38.742,ranlexdec,2020.2.5,Win32,60
,,,,,,,,,,,,left,1.890585,0,236,236,155,1,megpadék,KT109,NŐ,1999.06.01,15,2021-05-13_08h10.38.742,ranlexdec,2020.2.5,Win32,60
,,,,,,,,,,,,right,0.69511,0,237,237,58,1,barát,KT109,NŐ,1999.06.01,15,2021-05-13_08h10.38.742,ranlexdec,2020.2.5,Win32,60
,,,,,,,,,,,,right,0.86779,0,238,238,228,1,tarol,KT109,NŐ,1999.06.01,15,2021-05-13_08h10.38.742,ranlexdec,2020.2.5,Win32,60
,,,,,,,,,,,,right,0.811205,0,239,239,39,1,könnyelmű,KT109,NŐ,1999.06.01,15,2021-05-13_08h10.38.742,ranlexdec,2020.2.5,Win32,60
,,,,,,,,,,,,right,1.20353,0,240,240,247,1,ausztrál,KT109,NŐ,1999.06.01,15,2021-05-13_08h10.38.742,ranlexdec,2020.2.5,Win32,60
,,,,,,,,,,,,left,0.95077,0,241,241,44,1,ingváll,KT109,NŐ,1999.06.01,15,2021-05-13_08h10.38.742,ranlexdec,2020.2.5,Win32,60
,,,,,,,,,,,,right,4.866245,0,242,242,235,1,transzplantál,KT109,NŐ,1999.06.01,15,2021-05-13_08h10.38.742,ranlexdec,2020.2.5,Win32,60
,,,,,,,,,,,,left,1.05755,0,243,243,111,1,koenzim,KT109,NŐ,1999.06.01,15,2021-05-13_08h10.38.742,ranlexdec,2020.2.5,Win32,60
,,,,,,,,,,,,left,1.073735,0,244,244,47,1,döföl,KT109,NŐ,1999.06.01,15,2021-05-13_08h10.38.742,ranlexdec,2020.2.5,Win32,60
,,,,,,,,,,,,right,0.751705,0,245,245,104,1,dolog,KT109,NŐ,1999.06.01,15,2021-05-13_08h10.38.742,ranlexdec,2020.2.5,Win32,60
,,,,,,,,,,,,left,1.402905,0,246,246,63,1,viszkózus,KT109,NŐ,1999.06.01,15,2021-05-13_08h10.38.742,ranlexdec,2020.2.5,Win32,60
,,,,,,,,,,,,right,3.425455,0,247,247,230,1,délceg,KT109,NŐ,1999.06.01,15,2021-05-13_08h10.38.742,ranlexdec,2020.2.5,Win32,60
,,,,,,,,,,,,left,2.76755,0,248,248,180,1,adszorbens,KT109,NŐ,1999.06.01,15,2021-05-13_08h10.38.742,ranlexdec,2020.2.5,Win32,60
,,,,,,,,,,,,left,0.86756,0,249,249,186,1,piláf,KT109,NŐ,1999.06.01,15,2021-05-13_08h10.38.742,ranlexdec,2020.2.5,Win32,60
