ready2_2.keys,ready2_2.rt,ready2.keys,ready2.rt,key_resp.keys,key_resp.rt,key_resp_3.keys,key_resp_3.rt,key_resp_2.keys,key_resp_2.rt,ready3.keys,ready3.rt,resp.keys,resp.rt,withinBlock.thisRepN,withinBlock.thisTrialN,withinBlock.thisN,withinBlock.thisIndex,withinBlock.ran,word,Azonosító,Az Ön neme,Születési éve,Hány évet töltött az iskolapadban (egyetemet is beleértve),date,expName,psychopyVersion,OS,frameRate
right,38.375415,right,30.196155,right,1.54879,left,2.234955,left,2.3932,right,11.58575,right,1.154615,0,0,0,214,1,tenger,241,nő,2001,13,2021-05-14_16h30.17.370,ranlexdec,2020.2.5,Win32,60
,,,,,,,,,,,,right,1.933395,0,1,1,145,1,kurtít,241,nő,2001,13,2021-05-14_16h30.17.370,ranlexdec,2020.2.5,Win32,60
,,,,,,,,,,,,right,1.23192,0,2,2,196,1,dolgozik,241,nő,2001,13,2021-05-14_16h30.17.370,ranlexdec,2020.2.5,Win32,60
,,,,,,,,,,,,right,1.064245,0,3,3,21,1,heveny,241,nő,2001,13,2021-05-14_16h30.17.370,ranlexdec,2020.2.5,Win32,60
,,,,,,,,,,,,right,2.01177,0,4,4,70,1,lakotthely,241,nő,2001,13,2021-05-14_16h30.17.370,ranlexdec,2020.2.5,Win32,60
,,,,,,,,,,,,left,2.64914,0,5,5,142,1,storítő,241,nő,2001,13,2021-05-14_16h30.17.370,ranlexdec,2020.2.5,Win32,60
,,,,,,,,,,,,right,1.085,0,6,6,238,1,bolgár,241,nő,2001,13,2021-05-14_16h30.17.370,ranlexdec,2020.2.5,Win32,60
,,,,,,,,,,,,right,0.96765,0,7,7,99,1,sárgaréz,241,nő,2001,13,2021-05-14_16h30.17.370,ranlexdec,2020.2.5,Win32,60
,,,,,,,,,,,,right,0.80747,0,8,8,208,1,lélek,241,nő,2001,13,2021-05-14_16h30.17.370,ranlexdec,2020.2.5,Win32,60
,,,,,,,,,,,,right,1.084245,0,9,9,148,1,mellényzseb,241,nő,2001,13,2021-05-14_16h30.17.370,ranlexdec,2020.2.5,Win32,60
,,,,,,,,,,,,left,1.32524,0,10,10,36,1,tröshet,241,nő,2001,13,2021-05-14_16h30.17.370,ranlexdec,2020.2.5,Win32,60
,,,,,,,,,,,,right,0.851215,0,11,11,12,1,gyapot,241,nő,2001,13,2021-05-14_16h30.17.370,ranlexdec,2020.2.5,Win32,60
,,,,,,,,,,,,right,0.79999,0,12,12,231,1,igény,241,nő,2001,13,2021-05-14_16h30.17.370,ranlexdec,2020.2.5,Win32,60
,,,,,,,,,,,,right,0.83899,0,13,13,209,1,hidegház,241,nő,2001,13,2021-05-14_16h30.17.370,ranlexdec,2020.2.5,Win32,60
,,,,,,,,,,,,right,1.255855,0,14,14,200,1,biliárd,241,nő,2001,13,2021-05-14_16h30.17.370,ranlexdec,2020.2.5,Win32,60
,,,,,,,,,,,,left,1.021895,0,15,15,5,1,retta,241,nő,2001,13,2021-05-14_16h30.17.370,ranlexdec,2020.2.5,Win32,60
,,,,,,,,,,,,left,1.45394,0,16,16,155,1,megpadék,241,nő,2001,13,2021-05-14_16h30.17.370,ranlexdec,2020.2.5,Win32,60
,,,,,,,,,,,,left,1.569595,0,17,17,42,1,összalaj,241,nő,2001,13,2021-05-14_16h30.17.370,ranlexdec,2020.2.5,Win32,60
,,,,,,,,,,,,right,0.93451,0,18,18,68,1,kitin,241,nő,2001,13,2021-05-14_16h30.17.370,ranlexdec,2020.2.5,Win32,60
,,,,,,,,,,,,left,1.08877,0,19,19,167,1,vabank,241,nő,2001,13,2021-05-14_16h30.17.370,ranlexdec,2020.2.5,Win32,60
,,,,,,,,,,,,right,0.861395,0,20,20,86,1,jármű,241,nő,2001,13,2021-05-14_16h30.17.370,ranlexdec,2020.2.5,Win32,60
,,,,,,,,,,,,right,0.7866,0,21,21,79,1,extrém,241,nő,2001,13,2021-05-14_16h30.17.370,ranlexdec,2020.2.5,Win32,60
,,,,,,,,,,,,left,1.20117,0,22,22,157,1,káder,241,nő,2001,13,2021-05-14_16h30.17.370,ranlexdec,2020.2.5,Win32,60
,,,,,,,,,,,,right,0.850955,0,23,23,130,1,derít,241,nő,2001,13,2021-05-14_16h30.17.370,ranlexdec,2020.2.5,Win32,60
,,,,,,,,,,,,left,1.437015,0,24,24,139,1,vároló,241,nő,2001,13,2021-05-14_16h30.17.370,ranlexdec,2020.2.5,Win32,60
,,,,,,,,,,,,right,2.266665,0,25,25,138,1,gyűjtemény,241,nő,2001,13,2021-05-14_16h30.17.370,ranlexdec,2020.2.5,Win32,60
,,,,,,,,,,,,right,0.87255,0,26,26,14,1,selypít,241,nő,2001,13,2021-05-14_16h30.17.370,ranlexdec,2020.2.5,Win32,60
,,,,,,,,,,,,right,1.829605,0,27,27,96,1,alfél,241,nő,2001,13,2021-05-14_16h30.17.370,ranlexdec,2020.2.5,Win32,60
,,,,,,,,,,,,right,0.868175,0,28,28,149,1,anorák,241,nő,2001,13,2021-05-14_16h30.17.370,ranlexdec,2020.2.5,Win32,60
,,,,,,,,,,,,left,1.900185,0,29,29,17,1,magmatit,241,nő,2001,13,2021-05-14_16h30.17.370,ranlexdec,2020.2.5,Win32,60
,,,,,,,,,,,,right,1.018125,0,30,30,44,1,ingváll,241,nő,2001,13,2021-05-14_16h30.17.370,ranlexdec,2020.2.5,Win32,60
,,,,,,,,,,,,right,0.734805,0,31,31,114,1,tartalom,241,nő,2001,13,2021-05-14_16h30.17.370,ranlexdec,2020.2.5,Win32,60
,,,,,,,,,,,,right,1.12219,0,32,32,136,1,rücsök,241,nő,2001,13,2021-05-14_16h30.17.370,ranlexdec,2020.2.5,Win32,60
,,,,,,,,,,,,right,0.704,0,33,33,143,1,rojtoz,241,nő,2001,13,2021-05-14_16h30.17.370,ranlexdec,2020.2.5,Win32,60
,,,,,,,,,,,,right,0.75065,0,34,34,228,1,tarol,241,nő,2001,13,2021-05-14_16h30.17.370,ranlexdec,2020.2.5,Win32,60
,,,,,,,,,,,,right,0.5345,0,35,35,7,1,űrlap,241,nő,2001,13,2021-05-14_16h30.17.370,ranlexdec,2020.2.5,Win32,60
,,,,,,,,,,,,right,0.84836,0,36,36,165,1,lépték,241,nő,2001,13,2021-05-14_16h30.17.370,ranlexdec,2020.2.5,Win32,60
,,,,,,,,,,,,right,1.750035,0,37,37,69,1,gerencsér,241,nő,2001,13,2021-05-14_16h30.17.370,ranlexdec,2020.2.5,Win32,60
,,,,,,,,,,,,left,1.19292,0,38,38,191,1,hitódó,241,nő,2001,13,2021-05-14_16h30.17.370,ranlexdec,2020.2.5,Win32,60
,,,,,,,,,,,,right,0.772415,0,39,39,199,1,ború,241,nő,2001,13,2021-05-14_16h30.17.370,ranlexdec,2020.2.5,Win32,60
,,,,,,,,,,,,right,0.81714,0,40,40,55,1,látszik,241,nő,2001,13,2021-05-14_16h30.17.370,ranlexdec,2020.2.5,Win32,60
,,,,,,,,,,,,right,0.82235,0,41,41,37,1,lukaszt,241,nő,2001,13,2021-05-14_16h30.17.370,ranlexdec,2020.2.5,Win32,60
,,,,,,,,,,,,right,0.78491,0,42,42,98,1,mítosz,241,nő,2001,13,2021-05-14_16h30.17.370,ranlexdec,2020.2.5,Win32,60
,,,,,,,,,,,,right,0.56734,0,43,43,28,1,gazdag,241,nő,2001,13,2021-05-14_16h30.17.370,ranlexdec,2020.2.5,Win32,60
,,,,,,,,,,,,right,1.207305,0,44,44,32,1,genom,241,nő,2001,13,2021-05-14_16h30.17.370,ranlexdec,2020.2.5,Win32,60
,,,,,,,,,,,,left,1.07104,0,45,45,82,1,kvéker,241,nő,2001,13,2021-05-14_16h30.17.370,ranlexdec,2020.2.5,Win32,60
,,,,,,,,,,,,right,1.375735,0,46,46,133,1,hübrisz,241,nő,2001,13,2021-05-14_16h30.17.370,ranlexdec,2020.2.5,Win32,60
,,,,,,,,,,,,left,1.026605,0,47,47,203,1,abeti,241,nő,2001,13,2021-05-14_16h30.17.370,ranlexdec,2020.2.5,Win32,60
,,,,,,,,,,,,right,0.761595,0,48,48,53,1,puritán,241,nő,2001,13,2021-05-14_16h30.17.370,ranlexdec,2020.2.5,Win32,60
,,,,,,,,,,,,right,1.134885,0,49,49,249,1,kencéz,241,nő,2001,13,2021-05-14_16h30.17.370,ranlexdec,2020.2.5,Win32,60
,,,,,,,,,,,,right,1.467,0,50,50,240,1,áradmány,241,nő,2001,13,2021-05-14_16h30.17.370,ranlexdec,2020.2.5,Win32,60
,,,,,,,,,,,,right,1.01387,0,51,51,223,1,árstop,241,nő,2001,13,2021-05-14_16h30.17.370,ranlexdec,2020.2.5,Win32,60
,,,,,,,,,,,,right,0.78384,0,52,52,90,1,orális,241,nő,2001,13,2021-05-14_16h30.17.370,ranlexdec,2020.2.5,Win32,60
,,,,,,,,,,,,left,1.01765,0,53,53,77,1,egant,241,nő,2001,13,2021-05-14_16h30.17.370,ranlexdec,2020.2.5,Win32,60
,,,,,,,,,,,,right,0.80143,0,54,54,182,1,nagyszámú,241,nő,2001,13,2021-05-14_16h30.17.370,ranlexdec,2020.2.5,Win32,60
,,,,,,,,,,,,right,1.217125,0,55,55,52,1,kunyai,241,nő,2001,13,2021-05-14_16h30.17.370,ranlexdec,2020.2.5,Win32,60
,,,,,,,,,,,,right,2.232775,0,56,56,225,1,bajadér,241,nő,2001,13,2021-05-14_16h30.17.370,ranlexdec,2020.2.5,Win32,60
,,,,,,,,,,,,left,1.65235,0,57,57,16,1,cséltás,241,nő,2001,13,2021-05-14_16h30.17.370,ranlexdec,2020.2.5,Win32,60
,,,,,,,,,,,,right,0.851075,0,58,58,154,1,keresztény,241,nő,2001,13,2021-05-14_16h30.17.370,ranlexdec,2020.2.5,Win32,60
,,,,,,,,,,,,right,0.592715,0,59,59,188,1,sugár,241,nő,2001,13,2021-05-14_16h30.17.370,ranlexdec,2020.2.5,Win32,60
,,,,,,,,,,,,right,0.86709,0,60,60,115,1,fajansz,241,nő,2001,13,2021-05-14_16h30.17.370,ranlexdec,2020.2.5,Win32,60
,,,,,,,,,,,,right,0.83964,0,61,61,54,1,fürkész,241,nő,2001,13,2021-05-14_16h30.17.370,ranlexdec,2020.2.5,Win32,60
,,,,,,,,,,,,right,0.90118,0,62,62,202,1,abszint,241,nő,2001,13,2021-05-14_16h30.17.370,ranlexdec,2020.2.5,Win32,60
,,,,,,,,,,,,left,1.28468,0,63,63,97,1,vésségi,241,nő,2001,13,2021-05-14_16h30.17.370,ranlexdec,2020.2.5,Win32,60
,,,,,,,,,,,,right,2.00112,0,64,64,15,1,pauzál,241,nő,2001,13,2021-05-14_16h30.17.370,ranlexdec,2020.2.5,Win32,60
,,,,,,,,,,,,right,0.70143,0,65,65,110,1,időszak,241,nő,2001,13,2021-05-14_16h30.17.370,ranlexdec,2020.2.5,Win32,60
,,,,,,,,,,,,right,0.81781,0,66,66,0,1,irány,241,nő,2001,13,2021-05-14_16h30.17.370,ranlexdec,2020.2.5,Win32,60
,,,,,,,,,,,,right,0.56836,0,67,67,124,1,alkalom,241,nő,2001,13,2021-05-14_16h30.17.370,ranlexdec,2020.2.5,Win32,60
,,,,,,,,,,,,right,0.88451,0,68,68,74,1,püffeszt,241,nő,2001,13,2021-05-14_16h30.17.370,ranlexdec,2020.2.5,Win32,60
,,,,,,,,,,,,right,0.63525,0,69,69,18,1,csapattest,241,nő,2001,13,2021-05-14_16h30.17.370,ranlexdec,2020.2.5,Win32,60
,,,,,,,,,,,,right,0.592355,0,70,70,161,1,példakép,241,nő,2001,13,2021-05-14_16h30.17.370,ranlexdec,2020.2.5,Win32,60
,,,,,,,,,,,,right,0.717325,0,71,71,232,1,tropikus,241,nő,2001,13,2021-05-14_16h30.17.370,ranlexdec,2020.2.5,Win32,60
,,,,,,,,,,,,left,1.208945,0,72,72,50,1,csenyei,241,nő,2001,13,2021-05-14_16h30.17.370,ranlexdec,2020.2.5,Win32,60
,,,,,,,,,,,,right,0.87957,0,73,73,92,1,lágyék,241,nő,2001,13,2021-05-14_16h30.17.370,ranlexdec,2020.2.5,Win32,60
,,,,,,,,,,,,right,0.67631,0,74,74,159,1,elegy,241,nő,2001,13,2021-05-14_16h30.17.370,ranlexdec,2020.2.5,Win32,60
,,,,,,,,,,,,right,0.6286,0,75,75,129,1,turné,241,nő,2001,13,2021-05-14_16h30.17.370,ranlexdec,2020.2.5,Win32,60
,,,,,,,,,,,,left,1.112945,0,76,76,47,1,döföl,241,nő,2001,13,2021-05-14_16h30.17.370,ranlexdec,2020.2.5,Win32,60
,,,,,,,,,,,,left,1.5282,0,77,77,103,1,szabotró,241,nő,2001,13,2021-05-14_16h30.17.370,ranlexdec,2020.2.5,Win32,60
,,,,,,,,,,,,right,1.579205,0,78,78,27,1,sporthorgász,241,nő,2001,13,2021-05-14_16h30.17.370,ranlexdec,2020.2.5,Win32,60
,,,,,,,,,,,,left,1.36166,0,79,79,173,1,glosszáz,241,nő,2001,13,2021-05-14_16h30.17.370,ranlexdec,2020.2.5,Win32,60
,,,,,,,,,,,,left,1.026665,0,80,80,38,1,zomogyi,241,nő,2001,13,2021-05-14_16h30.17.370,ranlexdec,2020.2.5,Win32,60
,,,,,,,,,,,,left,1.195625,0,81,81,72,1,mihálóz,241,nő,2001,13,2021-05-14_16h30.17.370,ranlexdec,2020.2.5,Win32,60
,,,,,,,,,,,,left,1.16222,0,82,82,66,1,parkkói,241,nő,2001,13,2021-05-14_16h30.17.370,ranlexdec,2020.2.5,Win32,60
,,,,,,,,,,,,right,0.808895,0,83,83,241,1,kárpit,241,nő,2001,13,2021-05-14_16h30.17.370,ranlexdec,2020.2.5,Win32,60
,,,,,,,,,,,,right,0.648935,0,84,84,126,1,rejtőzik,241,nő,2001,13,2021-05-14_16h30.17.370,ranlexdec,2020.2.5,Win32,60
,,,,,,,,,,,,right,1.176235,0,85,85,235,1,transzplantál,241,nő,2001,13,2021-05-14_16h30.17.370,ranlexdec,2020.2.5,Win32,60
,,,,,,,,,,,,right,0.714575,0,86,86,61,1,régész,241,nő,2001,13,2021-05-14_16h30.17.370,ranlexdec,2020.2.5,Win32,60
,,,,,,,,,,,,left,1.39516,0,87,87,218,1,tortya,241,nő,2001,13,2021-05-14_16h30.17.370,ranlexdec,2020.2.5,Win32,60
,,,,,,,,,,,,right,0.797705,0,88,88,233,1,templomoz,241,nő,2001,13,2021-05-14_16h30.17.370,ranlexdec,2020.2.5,Win32,60
,,,,,,,,,,,,left,1.08144,0,89,89,181,1,dohorpák,241,nő,2001,13,2021-05-14_16h30.17.370,ranlexdec,2020.2.5,Win32,60
,,,,,,,,,,,,right,0.84828,0,90,90,187,1,testnedv,241,nő,2001,13,2021-05-14_16h30.17.370,ranlexdec,2020.2.5,Win32,60
,,,,,,,,,,,,left,1.70652,0,91,91,224,1,truccol,241,nő,2001,13,2021-05-14_16h30.17.370,ranlexdec,2020.2.5,Win32,60
,,,,,,,,,,,,right,0.548325,0,92,92,58,1,barát,241,nő,2001,13,2021-05-14_16h30.17.370,ranlexdec,2020.2.5,Win32,60
,,,,,,,,,,,,left,1.39741,0,93,93,91,1,tajtásos,241,nő,2001,13,2021-05-14_16h30.17.370,ranlexdec,2020.2.5,Win32,60
,,,,,,,,,,,,left,0.88278,0,94,94,156,1,lazúroz,241,nő,2001,13,2021-05-14_16h30.17.370,ranlexdec,2020.2.5,Win32,60
,,,,,,,,,,,,left,1.161825,0,95,95,204,1,kocskesi,241,nő,2001,13,2021-05-14_16h30.17.370,ranlexdec,2020.2.5,Win32,60
,,,,,,,,,,,,right,0.845425,0,96,96,194,1,végbél,241,nő,2001,13,2021-05-14_16h30.17.370,ranlexdec,2020.2.5,Win32,60
,,,,,,,,,,,,left,1.24233,0,97,97,242,1,rekvizit,241,nő,2001,13,2021-05-14_16h30.17.370,ranlexdec,2020.2.5,Win32,60
,,,,,,,,,,,,right,0.79226,0,98,98,210,1,karakter,241,nő,2001,13,2021-05-14_16h30.17.370,ranlexdec,2020.2.5,Win32,60
,,,,,,,,,,,,right,0.72902,0,99,99,123,1,luftballon,241,nő,2001,13,2021-05-14_16h30.17.370,ranlexdec,2020.2.5,Win32,60
,,,,,,,,,,,,right,0.94199,0,100,100,9,1,hajlik,241,nő,2001,13,2021-05-14_16h30.17.370,ranlexdec,2020.2.5,Win32,60
,,,,,,,,,,,,right,0.52824,0,101,101,183,1,színpad,241,nő,2001,13,2021-05-14_16h30.17.370,ranlexdec,2020.2.5,Win32,60
,,,,,,,,,,,,left,1.02871,0,102,102,71,1,extuál,241,nő,2001,13,2021-05-14_16h30.17.370,ranlexdec,2020.2.5,Win32,60
,,,,,,,,,,,,right,1.12787,0,103,103,239,1,donhuán,241,nő,2001,13,2021-05-14_16h30.17.370,ranlexdec,2020.2.5,Win32,60
,,,,,,,,,,,,right,1.36121,0,104,104,153,1,kontrapunkt,241,nő,2001,13,2021-05-14_16h30.17.370,ranlexdec,2020.2.5,Win32,60
,,,,,,,,,,,,left,1.89717,0,105,105,198,1,lublika,241,nő,2001,13,2021-05-14_16h30.17.370,ranlexdec,2020.2.5,Win32,60
,,,,,,,,,,,,right,0.625625,0,106,106,193,1,bacon,241,nő,2001,13,2021-05-14_16h30.17.370,ranlexdec,2020.2.5,Win32,60
,,,,,,,,,,,,left,1.790545,0,107,107,189,1,konverzál,241,nő,2001,13,2021-05-14_16h30.17.370,ranlexdec,2020.2.5,Win32,60
,,,,,,,,,,,,right,0.495215,0,108,108,48,1,reagál,241,nő,2001,13,2021-05-14_16h30.17.370,ranlexdec,2020.2.5,Win32,60
,,,,,,,,,,,,right,0.66105,0,109,109,57,1,lejmol,241,nő,2001,13,2021-05-14_16h30.17.370,ranlexdec,2020.2.5,Win32,60
,,,,,,,,,,,,left,1.42947,0,110,110,243,1,dipeptid,241,nő,2001,13,2021-05-14_16h30.17.370,ranlexdec,2020.2.5,Win32,60
,,,,,,,,,,,,left,1.245245,0,111,111,192,1,norvend,241,nő,2001,13,2021-05-14_16h30.17.370,ranlexdec,2020.2.5,Win32,60
,,,,,,,,,,,,right,0.529765,0,112,112,100,1,balközép,241,nő,2001,13,2021-05-14_16h30.17.370,ranlexdec,2020.2.5,Win32,60
,,,,,,,,,,,,right,0.493315,0,113,113,41,1,nagybeteg,241,nő,2001,13,2021-05-14_16h30.17.370,ranlexdec,2020.2.5,Win32,60
,,,,,,,,,,,,right,0.829055,0,114,114,119,1,cugehőr,241,nő,2001,13,2021-05-14_16h30.17.370,ranlexdec,2020.2.5,Win32,60
,,,,,,,,,,,,right,0.77732,0,115,115,185,1,gyülemlik,241,nő,2001,13,2021-05-14_16h30.17.370,ranlexdec,2020.2.5,Win32,60
,,,,,,,,,,,,left,1.227685,0,116,116,197,1,krakéler,241,nő,2001,13,2021-05-14_16h30.17.370,ranlexdec,2020.2.5,Win32,60
,,,,,,,,,,,,right,0.577915,0,117,117,45,1,népszerű,241,nő,2001,13,2021-05-14_16h30.17.370,ranlexdec,2020.2.5,Win32,60
,,,,,,,,,,,,right,0.47766,0,118,118,67,1,szegény,241,nő,2001,13,2021-05-14_16h30.17.370,ranlexdec,2020.2.5,Win32,60
,,,,,,,,,,,,right,0.633105,0,119,119,113,1,piktogram,241,nő,2001,13,2021-05-14_16h30.17.370,ranlexdec,2020.2.5,Win32,60
,,,,,,,,,,,,right,0.59384,0,120,120,184,1,profit,241,nő,2001,13,2021-05-14_16h30.17.370,ranlexdec,2020.2.5,Win32,60
,,,,,,,,,,,,left,0.8801,0,121,121,3,1,tömzsa,241,nő,2001,13,2021-05-14_16h30.17.370,ranlexdec,2020.2.5,Win32,60
,,,,,,,,,,,,right,0.99699,0,122,122,174,1,cianid,241,nő,2001,13,2021-05-14_16h30.17.370,ranlexdec,2020.2.5,Win32,60
,,,,,,,,,,,,right,1.04529,0,123,123,40,1,diviz,241,nő,2001,13,2021-05-14_16h30.17.370,ranlexdec,2020.2.5,Win32,60
,,,,,,,,,,,,right,2.095605,0,124,124,22,1,arzénsav,241,nő,2001,13,2021-05-14_16h30.17.370,ranlexdec,2020.2.5,Win32,60
,,,,,,,,,,,,right,0.64122,0,125,125,19,1,tangózik,241,nő,2001,13,2021-05-14_16h30.17.370,ranlexdec,2020.2.5,Win32,60
,,,,,,,,,,,,left,1.126445,0,126,126,121,1,aggófű,241,nő,2001,13,2021-05-14_16h30.17.370,ranlexdec,2020.2.5,Win32,60
,,,,,,,,,,,,left,0.85748,0,127,127,102,1,pentez,241,nő,2001,13,2021-05-14_16h30.17.370,ranlexdec,2020.2.5,Win32,60
,,,,,,,,,,,,right,0.57621,0,128,128,89,1,szokik,241,nő,2001,13,2021-05-14_16h30.17.370,ranlexdec,2020.2.5,Win32,60
,,,,,,,,,,,,right,1.762405,0,129,129,87,1,forrpont,241,nő,2001,13,2021-05-14_16h30.17.370,ranlexdec,2020.2.5,Win32,60
,,,,,,,,,,,,left,2.130965,0,130,130,217,1,ifjít,241,nő,2001,13,2021-05-14_16h30.17.370,ranlexdec,2020.2.5,Win32,60
,,,,,,,,,,,,right,0.695145,0,131,131,236,1,csatázik,241,nő,2001,13,2021-05-14_16h30.17.370,ranlexdec,2020.2.5,Win32,60
,,,,,,,,,,,,left,1.77899,0,132,132,150,1,orront,241,nő,2001,13,2021-05-14_16h30.17.370,ranlexdec,2020.2.5,Win32,60
,,,,,,,,,,,,right,0.62916,0,133,133,85,1,glükóz,241,nő,2001,13,2021-05-14_16h30.17.370,ranlexdec,2020.2.5,Win32,60
,,,,,,,,,,,,right,0.545015,0,134,134,179,1,töredék,241,nő,2001,13,2021-05-14_16h30.17.370,ranlexdec,2020.2.5,Win32,60
,,,,,,,,,,,,right,1.309065,0,135,135,94,1,rotor,241,nő,2001,13,2021-05-14_16h30.17.370,ranlexdec,2020.2.5,Win32,60
,,,,,,,,,,,,left,3.76201,0,136,136,180,1,adszorbens,241,nő,2001,13,2021-05-14_16h30.17.370,ranlexdec,2020.2.5,Win32,60
,,,,,,,,,,,,left,1.08243,0,137,137,75,1,karnogó,241,nő,2001,13,2021-05-14_16h30.17.370,ranlexdec,2020.2.5,Win32,60
,,,,,,,,,,,,right,0.6289,0,138,138,34,1,csengettyű,241,nő,2001,13,2021-05-14_16h30.17.370,ranlexdec,2020.2.5,Win32,60
,,,,,,,,,,,,right,0.515735,0,139,139,78,1,törékeny,241,nő,2001,13,2021-05-14_16h30.17.370,ranlexdec,2020.2.5,Win32,60
,,,,,,,,,,,,left,0.945765,0,140,140,175,1,szilikát,241,nő,2001,13,2021-05-14_16h30.17.370,ranlexdec,2020.2.5,Win32,60
,,,,,,,,,,,,right,0.49688,0,141,141,219,1,szimboló,241,nő,2001,13,2021-05-14_16h30.17.370,ranlexdec,2020.2.5,Win32,60
,,,,,,,,,,,,right,1.328175,0,142,142,147,1,referál,241,nő,2001,13,2021-05-14_16h30.17.370,ranlexdec,2020.2.5,Win32,60
,,,,,,,,,,,,left,2.433215,0,143,143,83,1,vonzum,241,nő,2001,13,2021-05-14_16h30.17.370,ranlexdec,2020.2.5,Win32,60
,,,,,,,,,,,,left,1.214145,0,144,144,128,1,csüggedez,241,nő,2001,13,2021-05-14_16h30.17.370,ranlexdec,2020.2.5,Win32,60
,,,,,,,,,,,,right,0.81214,0,145,145,227,1,kötődik,241,nő,2001,13,2021-05-14_16h30.17.370,ranlexdec,2020.2.5,Win32,60
,,,,,,,,,,,,right,0.798365,0,146,146,215,1,neoprén,241,nő,2001,13,2021-05-14_16h30.17.370,ranlexdec,2020.2.5,Win32,60
,,,,,,,,,,,,left,2.37454,0,147,147,111,1,koenzim,241,nő,2001,13,2021-05-14_16h30.17.370,ranlexdec,2020.2.5,Win32,60
,,,,,,,,,,,,right,0.53486,0,148,148,213,1,eszköz,241,nő,2001,13,2021-05-14_16h30.17.370,ranlexdec,2020.2.5,Win32,60
,,,,,,,,,,,,left,1.11754,0,149,149,108,1,konyrúd,241,nő,2001,13,2021-05-14_16h30.17.370,ranlexdec,2020.2.5,Win32,60
,,,,,,,,,,,,right,1.33364,0,150,150,30,1,dádá,241,nő,2001,13,2021-05-14_16h30.17.370,ranlexdec,2020.2.5,Win32,60
,,,,,,,,,,,,right,0.90079,0,151,151,60,1,bárányfark,241,nő,2001,13,2021-05-14_16h30.17.370,ranlexdec,2020.2.5,Win32,60
,,,,,,,,,,,,right,0.517725,0,152,152,169,1,komoly,241,nő,2001,13,2021-05-14_16h30.17.370,ranlexdec,2020.2.5,Win32,60
,,,,,,,,,,,,right,0.6184,0,153,153,31,1,iszlám,241,nő,2001,13,2021-05-14_16h30.17.370,ranlexdec,2020.2.5,Win32,60
,,,,,,,,,,,,right,0.78446,0,154,154,234,1,fertilis,241,nő,2001,13,2021-05-14_16h30.17.370,ranlexdec,2020.2.5,Win32,60
,,,,,,,,,,,,right,0.918675,0,155,155,39,1,könnyelmű,241,nő,2001,13,2021-05-14_16h30.17.370,ranlexdec,2020.2.5,Win32,60
,,,,,,,,,,,,right,1.783255,0,156,156,164,1,kurzivál,241,nő,2001,13,2021-05-14_16h30.17.370,ranlexdec,2020.2.5,Win32,60
,,,,,,,,,,,,right,0.685145,0,157,157,10,1,nárcisz,241,nő,2001,13,2021-05-14_16h30.17.370,ranlexdec,2020.2.5,Win32,60
,,,,,,,,,,,,left,1.258975,0,158,158,49,1,ernyak,241,nő,2001,13,2021-05-14_16h30.17.370,ranlexdec,2020.2.5,Win32,60
,,,,,,,,,,,,left,1.30071,0,159,159,117,1,ószeven,241,nő,2001,13,2021-05-14_16h30.17.370,ranlexdec,2020.2.5,Win32,60
,,,,,,,,,,,,right,0.586455,0,160,160,172,1,kettősfém,241,nő,2001,13,2021-05-14_16h30.17.370,ranlexdec,2020.2.5,Win32,60
,,,,,,,,,,,,right,1.101025,0,161,161,46,1,kurzív,241,nő,2001,13,2021-05-14_16h30.17.370,ranlexdec,2020.2.5,Win32,60
,,,,,,,,,,,,right,0.672325,0,162,162,248,1,örmény,241,nő,2001,13,2021-05-14_16h30.17.370,ranlexdec,2020.2.5,Win32,60
,,,,,,,,,,,,left,1.37533,0,163,163,205,1,mimézis,241,nő,2001,13,2021-05-14_16h30.17.370,ranlexdec,2020.2.5,Win32,60
,,,,,,,,,,,,right,0.76874,0,164,164,135,1,ion,241,nő,2001,13,2021-05-14_16h30.17.370,ranlexdec,2020.2.5,Win32,60
,,,,,,,,,,,,left,0.790845,0,165,165,62,1,bizmut,241,nő,2001,13,2021-05-14_16h30.17.370,ranlexdec,2020.2.5,Win32,60
,,,,,,,,,,,,right,1.05092,0,166,166,168,1,grafikon,241,nő,2001,13,2021-05-14_16h30.17.370,ranlexdec,2020.2.5,Win32,60
,,,,,,,,,,,,left,1.02099,0,167,167,4,1,viszonvád,241,nő,2001,13,2021-05-14_16h30.17.370,ranlexdec,2020.2.5,Win32,60
,,,,,,,,,,,,right,1.02426,0,168,168,95,1,skubizik,241,nő,2001,13,2021-05-14_16h30.17.370,ranlexdec,2020.2.5,Win32,60
,,,,,,,,,,,,right,0.59211,0,169,169,151,1,komplex,241,nő,2001,13,2021-05-14_16h30.17.370,ranlexdec,2020.2.5,Win32,60
,,,,,,,,,,,,left,1.00109,0,170,170,131,1,vetézmés,241,nő,2001,13,2021-05-14_16h30.17.370,ranlexdec,2020.2.5,Win32,60
,,,,,,,,,,,,right,0.918055,0,171,171,216,1,svábtök,241,nő,2001,13,2021-05-14_16h30.17.370,ranlexdec,2020.2.5,Win32,60
,,,,,,,,,,,,left,0.94133,0,172,172,195,1,petél,241,nő,2001,13,2021-05-14_16h30.17.370,ranlexdec,2020.2.5,Win32,60
,,,,,,,,,,,,right,0.68453,0,173,173,246,1,beton,241,nő,2001,13,2021-05-14_16h30.17.370,ranlexdec,2020.2.5,Win32,60
,,,,,,,,,,,,right,1.021365,0,174,174,190,1,rámáz,241,nő,2001,13,2021-05-14_16h30.17.370,ranlexdec,2020.2.5,Win32,60
,,,,,,,,,,,,right,0.784565,0,175,175,11,1,viszkóz,241,nő,2001,13,2021-05-14_16h30.17.370,ranlexdec,2020.2.5,Win32,60
,,,,,,,,,,,,left,1.0675,0,176,176,76,1,jegedény,241,nő,2001,13,2021-05-14_16h30.17.370,ranlexdec,2020.2.5,Win32,60
,,,,,,,,,,,,right,0.50594,0,177,177,132,1,hatalom,241,nő,2001,13,2021-05-14_16h30.17.370,ranlexdec,2020.2.5,Win32,60
,,,,,,,,,,,,left,0.86661,0,178,178,141,1,hider,241,nő,2001,13,2021-05-14_16h30.17.370,ranlexdec,2020.2.5,Win32,60
,,,,,,,,,,,,left,0.983925,0,179,179,137,1,aragas,241,nő,2001,13,2021-05-14_16h30.17.370,ranlexdec,2020.2.5,Win32,60
,,,,,,,,,,,,left,1.184585,0,180,180,2,1,gyásos,241,nő,2001,13,2021-05-14_16h30.17.370,ranlexdec,2020.2.5,Win32,60
,,,,,,,,,,,,right,0.700995,0,181,181,122,1,égitest,241,nő,2001,13,2021-05-14_16h30.17.370,ranlexdec,2020.2.5,Win32,60
,,,,,,,,,,,,right,0.55727,0,182,182,244,1,kislány,241,nő,2001,13,2021-05-14_16h30.17.370,ranlexdec,2020.2.5,Win32,60
,,,,,,,,,,,,left,0.979125,0,183,183,107,1,kelől,241,nő,2001,13,2021-05-14_16h30.17.370,ranlexdec,2020.2.5,Win32,60
,,,,,,,,,,,,right,0.6356,0,184,184,221,1,törődik,241,nő,2001,13,2021-05-14_16h30.17.370,ranlexdec,2020.2.5,Win32,60
,,,,,,,,,,,,right,0.913475,0,185,185,101,1,nukleon,241,nő,2001,13,2021-05-14_16h30.17.370,ranlexdec,2020.2.5,Win32,60
,,,,,,,,,,,,left,1.267295,0,186,186,81,1,takorák,241,nő,2001,13,2021-05-14_16h30.17.370,ranlexdec,2020.2.5,Win32,60
,,,,,,,,,,,,right,0.585055,0,187,187,144,1,rövid,241,nő,2001,13,2021-05-14_16h30.17.370,ranlexdec,2020.2.5,Win32,60
,,,,,,,,,,,,left,0.800785,0,188,188,163,1,kollapszus,241,nő,2001,13,2021-05-14_16h30.17.370,ranlexdec,2020.2.5,Win32,60
,,,,,,,,,,,,right,0.617805,0,189,189,43,1,közhely,241,nő,2001,13,2021-05-14_16h30.17.370,ranlexdec,2020.2.5,Win32,60
,,,,,,,,,,,,right,1.43417,0,190,190,13,1,törköly,241,nő,2001,13,2021-05-14_16h30.17.370,ranlexdec,2020.2.5,Win32,60
,,,,,,,,,,,,right,0.5016,0,191,191,73,1,olaj,241,nő,2001,13,2021-05-14_16h30.17.370,ranlexdec,2020.2.5,Win32,60
,,,,,,,,,,,,left,0.79296,0,192,192,26,1,aurult,241,nő,2001,13,2021-05-14_16h30.17.370,ranlexdec,2020.2.5,Win32,60
,,,,,,,,,,,,left,0.983655,0,193,193,29,1,novagár,241,nő,2001,13,2021-05-14_16h30.17.370,ranlexdec,2020.2.5,Win32,60
,,,,,,,,,,,,left,1.45061,0,194,194,51,1,bajuszfű,241,nő,2001,13,2021-05-14_16h30.17.370,ranlexdec,2020.2.5,Win32,60
,,,,,,,,,,,,right,0.95037,0,195,195,59,1,ómagyar,241,nő,2001,13,2021-05-14_16h30.17.370,ranlexdec,2020.2.5,Win32,60
,,,,,,,,,,,,right,0.62192,0,196,196,247,1,ausztrál,241,nő,2001,13,2021-05-14_16h30.17.370,ranlexdec,2020.2.5,Win32,60
,,,,,,,,,,,,right,0.53441,0,197,197,116,1,árus,241,nő,2001,13,2021-05-14_16h30.17.370,ranlexdec,2020.2.5,Win32,60
,,,,,,,,,,,,right,0.69502,0,198,198,245,1,ellenfél,241,nő,2001,13,2021-05-14_16h30.17.370,ranlexdec,2020.2.5,Win32,60
,,,,,,,,,,,,left,0.751155,0,199,199,134,1,móringol,241,nő,2001,13,2021-05-14_16h30.17.370,ranlexdec,2020.2.5,Win32,60
,,,,,,,,,,,,left,0.969035,0,200,200,93,1,kilukát,241,nő,2001,13,2021-05-14_16h30.17.370,ranlexdec,2020.2.5,Win32,60
,,,,,,,,,,,,right,0.56771,0,201,201,64,1,hálózsák,241,nő,2001,13,2021-05-14_16h30.17.370,ranlexdec,2020.2.5,Win32,60
,,,,,,,,,,,,right,1.238865,0,202,202,222,1,nyersarany,241,nő,2001,13,2021-05-14_16h30.17.370,ranlexdec,2020.2.5,Win32,60
,,,,,,,,,,,,left,0.90098,0,203,203,127,1,rozintem,241,nő,2001,13,2021-05-14_16h30.17.370,ranlexdec,2020.2.5,Win32,60
,,,,,,,,,,,,right,0.601095,0,204,204,201,1,szempont,241,nő,2001,13,2021-05-14_16h30.17.370,ranlexdec,2020.2.5,Win32,60
,,,,,,,,,,,,left,0.7681,0,205,205,106,1,lalláz,241,nő,2001,13,2021-05-14_16h30.17.370,ranlexdec,2020.2.5,Win32,60
,,,,,,,,,,,,right,1.86688,0,206,206,171,1,újgazdag,241,nő,2001,13,2021-05-14_16h30.17.370,ranlexdec,2020.2.5,Win32,60
,,,,,,,,,,,,right,0.650885,0,207,207,211,1,tábornagy,241,nő,2001,13,2021-05-14_16h30.17.370,ranlexdec,2020.2.5,Win32,60
,,,,,,,,,,,,left,1.80548,0,208,208,84,1,kúpol,241,nő,2001,13,2021-05-14_16h30.17.370,ranlexdec,2020.2.5,Win32,60
,,,,,,,,,,,,left,0.95351,0,209,209,23,1,szelégül,241,nő,2001,13,2021-05-14_16h30.17.370,ranlexdec,2020.2.5,Win32,60
,,,,,,,,,,,,right,0.68411,0,210,210,220,1,csontdarab,241,nő,2001,13,2021-05-14_16h30.17.370,ranlexdec,2020.2.5,Win32,60
,,,,,,,,,,,,right,0.568555,0,211,211,20,1,század,241,nő,2001,13,2021-05-14_16h30.17.370,ranlexdec,2020.2.5,Win32,60
,,,,,,,,,,,,right,0.904105,0,212,212,212,1,farkasbab,241,nő,2001,13,2021-05-14_16h30.17.370,ranlexdec,2020.2.5,Win32,60
,,,,,,,,,,,,right,0.767415,0,213,213,206,1,horizont,241,nő,2001,13,2021-05-14_16h30.17.370,ranlexdec,2020.2.5,Win32,60
,,,,,,,,,,,,right,1.6542,0,214,214,152,1,rakódik,241,nő,2001,13,2021-05-14_16h30.17.370,ranlexdec,2020.2.5,Win32,60
,,,,,,,,,,,,left,0.834245,0,215,215,166,1,retálhit,241,nő,2001,13,2021-05-14_16h30.17.370,ranlexdec,2020.2.5,Win32,60
,,,,,,,,,,,,left,1.516445,0,216,216,65,1,infimum,241,nő,2001,13,2021-05-14_16h30.17.370,ranlexdec,2020.2.5,Win32,60
,,,,,,,,,,,,right,0.736535,0,217,217,56,1,kanalaz,241,nő,2001,13,2021-05-14_16h30.17.370,ranlexdec,2020.2.5,Win32,60
,,,,,,,,,,,,left,1.038365,0,218,218,109,1,vényegő,241,nő,2001,13,2021-05-14_16h30.17.370,ranlexdec,2020.2.5,Win32,60
,,,,,,,,,,,,left,0.77081,0,219,219,125,1,úszamos,241,nő,2001,13,2021-05-14_16h30.17.370,ranlexdec,2020.2.5,Win32,60
,,,,,,,,,,,,right,0.52103,0,220,220,104,1,dolog,241,nő,2001,13,2021-05-14_16h30.17.370,ranlexdec,2020.2.5,Win32,60
,,,,,,,,,,,,right,0.784585,0,221,221,120,1,komál,241,nő,2001,13,2021-05-14_16h30.17.370,ranlexdec,2020.2.5,Win32,60
,,,,,,,,,,,,right,0.634655,0,222,222,33,1,kalcium,241,nő,2001,13,2021-05-14_16h30.17.370,ranlexdec,2020.2.5,Win32,60
,,,,,,,,,,,,right,0.60116,0,223,223,140,1,diktátor,241,nő,2001,13,2021-05-14_16h30.17.370,ranlexdec,2020.2.5,Win32,60
,,,,,,,,,,,,right,0.967595,0,224,224,178,1,sziszeg,241,nő,2001,13,2021-05-14_16h30.17.370,ranlexdec,2020.2.5,Win32,60
,,,,,,,,,,,,right,0.58453,0,225,225,160,1,százalék,241,nő,2001,13,2021-05-14_16h30.17.370,ranlexdec,2020.2.5,Win32,60
,,,,,,,,,,,,right,1.385755,0,226,226,25,1,reform,241,nő,2001,13,2021-05-14_16h30.17.370,ranlexdec,2020.2.5,Win32,60
,,,,,,,,,,,,left,0.78456,0,227,227,229,1,lemesség,241,nő,2001,13,2021-05-14_16h30.17.370,ranlexdec,2020.2.5,Win32,60
,,,,,,,,,,,,right,0.671935,0,228,228,176,1,bélyeg,241,nő,2001,13,2021-05-14_16h30.17.370,ranlexdec,2020.2.5,Win32,60
,,,,,,,,,,,,left,1.03465,0,229,229,35,1,türemlik,241,nő,2001,13,2021-05-14_16h30.17.370,ranlexdec,2020.2.5,Win32,60
,,,,,,,,,,,,left,0.77799,0,230,230,186,1,piláf,241,nő,2001,13,2021-05-14_16h30.17.370,ranlexdec,2020.2.5,Win32,60
,,,,,,,,,,,,left,0.711855,0,231,231,118,1,libling,241,nő,2001,13,2021-05-14_16h30.17.370,ranlexdec,2020.2.5,Win32,60
,,,,,,,,,,,,left,0.74662,0,232,232,162,1,nimbus,241,nő,2001,13,2021-05-14_16h30.17.370,ranlexdec,2020.2.5,Win32,60
,,,,,,,,,,,,right,0.669415,0,233,233,230,1,délceg,241,nő,2001,13,2021-05-14_16h30.17.370,ranlexdec,2020.2.5,Win32,60
,,,,,,,,,,,,right,1.09472,0,234,234,237,1,forgórész,241,nő,2001,13,2021-05-14_16h30.17.370,ranlexdec,2020.2.5,Win32,60
,,,,,,,,,,,,right,1.094395,0,235,235,146,1,kondenzcsík,241,nő,2001,13,2021-05-14_16h30.17.370,ranlexdec,2020.2.5,Win32,60
,,,,,,,,,,,,right,0.812995,0,236,236,226,1,szalicil,241,nő,2001,13,2021-05-14_16h30.17.370,ranlexdec,2020.2.5,Win32,60
,,,,,,,,,,,,right,0.913405,0,237,237,105,1,tököl,241,nő,2001,13,2021-05-14_16h30.17.370,ranlexdec,2020.2.5,Win32,60
,,,,,,,,,,,,left,1.01054,0,238,238,207,1,diffamál,241,nő,2001,13,2021-05-14_16h30.17.370,ranlexdec,2020.2.5,Win32,60
,,,,,,,,,,,,right,0.625245,0,239,239,80,1,darab,241,nő,2001,13,2021-05-14_16h30.17.370,ranlexdec,2020.2.5,Win32,60
,,,,,,,,,,,,right,0.94867,0,240,240,6,1,csüggeszt,241,nő,2001,13,2021-05-14_16h30.17.370,ranlexdec,2020.2.5,Win32,60
,,,,,,,,,,,,right,0.61932,0,241,241,170,1,változik,241,nő,2001,13,2021-05-14_16h30.17.370,ranlexdec,2020.2.5,Win32,60
,,,,,,,,,,,,left,1.24668,0,242,242,112,1,méhezter,241,nő,2001,13,2021-05-14_16h30.17.370,ranlexdec,2020.2.5,Win32,60
,,,,,,,,,,,,right,0.7262,0,243,243,158,1,hidroxid,241,nő,2001,13,2021-05-14_16h30.17.370,ranlexdec,2020.2.5,Win32,60
,,,,,,,,,,,,right,0.543645,0,244,244,177,1,pereg,241,nő,2001,13,2021-05-14_16h30.17.370,ranlexdec,2020.2.5,Win32,60
,,,,,,,,,,,,right,0.49455,0,245,245,88,1,pohár,241,nő,2001,13,2021-05-14_16h30.17.370,ranlexdec,2020.2.5,Win32,60
,,,,,,,,,,,,right,0.732435,0,246,246,63,1,viszkózus,241,nő,2001,13,2021-05-14_16h30.17.370,ranlexdec,2020.2.5,Win32,60
,,,,,,,,,,,,left,1.477135,0,247,247,1,1,csapdáz,241,nő,2001,13,2021-05-14_16h30.17.370,ranlexdec,2020.2.5,Win32,60
,,,,,,,,,,,,right,0.829575,0,248,248,8,1,kulcscsont,241,nő,2001,13,2021-05-14_16h30.17.370,ranlexdec,2020.2.5,Win32,60
,,,,,,,,,,,,left,0.9463,0,249,249,24,1,kosi,241,nő,2001,13,2021-05-14_16h30.17.370,ranlexdec,2020.2.5,Win32,60
