ready2_2.keys,ready2_2.rt,ready2.keys,ready2.rt,key_resp.keys,key_resp.rt,key_resp_3.keys,key_resp_3.rt,key_resp_2.keys,key_resp_2.rt,ready3.keys,ready3.rt,resp.keys,resp.rt,withinBlock.thisRepN,withinBlock.thisTrialN,withinBlock.thisN,withinBlock.thisIndex,withinBlock.ran,word,Azonosító,Az Ön neme,Születési éve,Hány évet töltött az iskolapadban (egyetemet is beleértve),date,expName,psychopyVersion,OS,frameRate
return,23.469,return,25.742,right,1.898,left,2,left,20.927,return,10.963,right,1.03,0,0,0,126,1,rejtőzik,KT113,Nő,1999,14,2021-05-13_08h34.08.004,ranlexdec,2020.2.5,Win32,60
,,,,,,,,,,,,left,2.43,0,1,1,142,1,storítő,KT113,Nő,1999,14,2021-05-13_08h34.08.004,ranlexdec,2020.2.5,Win32,60
,,,,,,,,,,,,right,1.145,0,2,2,236,1,csatázik,KT113,Nő,1999,14,2021-05-13_08h34.08.004,ranlexdec,2020.2.5,Win32,60
,,,,,,,,,,,,right,0.947,0,3,3,120,1,komál,KT113,Nő,1999,14,2021-05-13_08h34.08.004,ranlexdec,2020.2.5,Win32,60
,,,,,,,,,,,,right,1,0,4,4,202,1,abszint,KT113,Nő,1999,14,2021-05-13_08h34.08.004,ranlexdec,2020.2.5,Win32,60
,,,,,,,,,,,,right,0.949,0,5,5,248,1,örmény,KT113,Nő,1999,14,2021-05-13_08h34.08.004,ranlexdec,2020.2.5,Win32,60
,,,,,,,,,,,,left,1.046,0,6,6,62,1,bizmut,KT113,Nő,1999,14,2021-05-13_08h34.08.004,ranlexdec,2020.2.5,Win32,60
,,,,,,,,,,,,right,0.732,0,7,7,104,1,dolog,KT113,Nő,1999,14,2021-05-13_08h34.08.004,ranlexdec,2020.2.5,Win32,60
,,,,,,,,,,,,left,1.93,0,8,8,16,1,cséltás,KT113,Nő,1999,14,2021-05-13_08h34.08.004,ranlexdec,2020.2.5,Win32,60
,,,,,,,,,,,,right,0.815,0,9,9,105,1,tököl,KT113,Nő,1999,14,2021-05-13_08h34.08.004,ranlexdec,2020.2.5,Win32,60
,,,,,,,,,,,,left,5.865,0,10,10,106,1,lalláz,KT113,Nő,1999,14,2021-05-13_08h34.08.004,ranlexdec,2020.2.5,Win32,60
,,,,,,,,,,,,right,1.415,0,11,11,240,1,áradmány,KT113,Nő,1999,14,2021-05-13_08h34.08.004,ranlexdec,2020.2.5,Win32,60
,,,,,,,,,,,,right,0.869,0,12,12,12,1,gyapot,KT113,Nő,1999,14,2021-05-13_08h34.08.004,ranlexdec,2020.2.5,Win32,60
,,,,,,,,,,,,right,1.137,0,13,13,156,1,lazúroz,KT113,Nő,1999,14,2021-05-13_08h34.08.004,ranlexdec,2020.2.5,Win32,60
,,,,,,,,,,,,right,0.769,0,14,14,194,1,végbél,KT113,Nő,1999,14,2021-05-13_08h34.08.004,ranlexdec,2020.2.5,Win32,60
,,,,,,,,,,,,right,0.817,0,15,15,68,1,kitin,KT113,Nő,1999,14,2021-05-13_08h34.08.004,ranlexdec,2020.2.5,Win32,60
,,,,,,,,,,,,right,0.697,0,16,16,201,1,szempont,KT113,Nő,1999,14,2021-05-13_08h34.08.004,ranlexdec,2020.2.5,Win32,60
,,,,,,,,,,,,left,1.114,0,17,17,36,1,tröshet,KT113,Nő,1999,14,2021-05-13_08h34.08.004,ranlexdec,2020.2.5,Win32,60
,,,,,,,,,,,,left,1.568,0,18,18,50,1,csenyei,KT113,Nő,1999,14,2021-05-13_08h34.08.004,ranlexdec,2020.2.5,Win32,60
,,,,,,,,,,,,right,0.798,0,19,19,122,1,égitest,KT113,Nő,1999,14,2021-05-13_08h34.08.004,ranlexdec,2020.2.5,Win32,60
,,,,,,,,,,,,right,0.914,0,20,20,6,1,csüggeszt,KT113,Nő,1999,14,2021-05-13_08h34.08.004,ranlexdec,2020.2.5,Win32,60
,,,,,,,,,,,,right,0.914,0,21,21,85,1,glükóz,KT113,Nő,1999,14,2021-05-13_08h34.08.004,ranlexdec,2020.2.5,Win32,60
,,,,,,,,,,,,left,2.015,0,22,22,197,1,krakéler,KT113,Nő,1999,14,2021-05-13_08h34.08.004,ranlexdec,2020.2.5,Win32,60
,,,,,,,,,,,,left,1.598,0,23,23,166,1,retálhit,KT113,Nő,1999,14,2021-05-13_08h34.08.004,ranlexdec,2020.2.5,Win32,60
,,,,,,,,,,,,right,1.082,0,24,24,39,1,könnyelmű,KT113,Nő,1999,14,2021-05-13_08h34.08.004,ranlexdec,2020.2.5,Win32,60
,,,,,,,,,,,,right,3.381,0,25,25,207,1,diffamál,KT113,Nő,1999,14,2021-05-13_08h34.08.004,ranlexdec,2020.2.5,Win32,60
,,,,,,,,,,,,right,4.596,0,26,26,222,1,nyersarany,KT113,Nő,1999,14,2021-05-13_08h34.08.004,ranlexdec,2020.2.5,Win32,60
,,,,,,,,,,,,right,1.496,0,27,27,114,1,tartalom,KT113,Nő,1999,14,2021-05-13_08h34.08.004,ranlexdec,2020.2.5,Win32,60
,,,,,,,,,,,,left,1.314,0,28,28,82,1,kvéker,KT113,Nő,1999,14,2021-05-13_08h34.08.004,ranlexdec,2020.2.5,Win32,60
,,,,,,,,,,,,right,1.78,0,29,29,128,1,csüggedez,KT113,Nő,1999,14,2021-05-13_08h34.08.004,ranlexdec,2020.2.5,Win32,60
,,,,,,,,,,,,right,0.715,0,30,30,98,1,mítosz,KT113,Nő,1999,14,2021-05-13_08h34.08.004,ranlexdec,2020.2.5,Win32,60
,,,,,,,,,,,,right,0.717,0,31,31,160,1,százalék,KT113,Nő,1999,14,2021-05-13_08h34.08.004,ranlexdec,2020.2.5,Win32,60
,,,,,,,,,,,,right,0.785,0,32,32,244,1,kislány,KT113,Nő,1999,14,2021-05-13_08h34.08.004,ranlexdec,2020.2.5,Win32,60
,,,,,,,,,,,,right,1.298,0,33,33,15,1,pauzál,KT113,Nő,1999,14,2021-05-13_08h34.08.004,ranlexdec,2020.2.5,Win32,60
,,,,,,,,,,,,right,0.848,0,34,34,165,1,lépték,KT113,Nő,1999,14,2021-05-13_08h34.08.004,ranlexdec,2020.2.5,Win32,60
,,,,,,,,,,,,left,1.249,0,35,35,65,1,infimum,KT113,Nő,1999,14,2021-05-13_08h34.08.004,ranlexdec,2020.2.5,Win32,60
,,,,,,,,,,,,right,0.786,0,36,36,45,1,népszerű,KT113,Nő,1999,14,2021-05-13_08h34.08.004,ranlexdec,2020.2.5,Win32,60
,,,,,,,,,,,,right,1.651,0,37,37,143,1,rojtoz,KT113,Nő,1999,14,2021-05-13_08h34.08.004,ranlexdec,2020.2.5,Win32,60
,,,,,,,,,,,,right,1.081,0,38,38,193,1,bacon,KT113,Nő,1999,14,2021-05-13_08h34.08.004,ranlexdec,2020.2.5,Win32,60
,,,,,,,,,,,,left,1.931,0,39,39,131,1,vetézmés,KT113,Nő,1999,14,2021-05-13_08h34.08.004,ranlexdec,2020.2.5,Win32,60
,,,,,,,,,,,,right,0.98,0,40,40,178,1,sziszeg,KT113,Nő,1999,14,2021-05-13_08h34.08.004,ranlexdec,2020.2.5,Win32,60
,,,,,,,,,,,,right,1.096,0,41,41,74,1,püffeszt,KT113,Nő,1999,14,2021-05-13_08h34.08.004,ranlexdec,2020.2.5,Win32,60
,,,,,,,,,,,,left,1.014,0,42,42,107,1,kelől,KT113,Nő,1999,14,2021-05-13_08h34.08.004,ranlexdec,2020.2.5,Win32,60
,,,,,,,,,,,,right,1.463,0,43,43,235,1,transzplantál,KT113,Nő,1999,14,2021-05-13_08h34.08.004,ranlexdec,2020.2.5,Win32,60
,,,,,,,,,,,,right,0.765,0,44,44,67,1,szegény,KT113,Nő,1999,14,2021-05-13_08h34.08.004,ranlexdec,2020.2.5,Win32,60
,,,,,,,,,,,,right,0.665,0,45,45,20,1,század,KT113,Nő,1999,14,2021-05-13_08h34.08.004,ranlexdec,2020.2.5,Win32,60
,,,,,,,,,,,,right,0.814,0,46,46,184,1,profit,KT113,Nő,1999,14,2021-05-13_08h34.08.004,ranlexdec,2020.2.5,Win32,60
,,,,,,,,,,,,left,1.015,0,47,47,139,1,vároló,KT113,Nő,1999,14,2021-05-13_08h34.08.004,ranlexdec,2020.2.5,Win32,60
,,,,,,,,,,,,right,0.631,0,48,48,214,1,tenger,KT113,Nő,1999,14,2021-05-13_08h34.08.004,ranlexdec,2020.2.5,Win32,60
,,,,,,,,,,,,right,1.648,0,49,49,19,1,tangózik,KT113,Nő,1999,14,2021-05-13_08h34.08.004,ranlexdec,2020.2.5,Win32,60
,,,,,,,,,,,,right,0.914,0,50,50,78,1,törékeny,KT113,Nő,1999,14,2021-05-13_08h34.08.004,ranlexdec,2020.2.5,Win32,60
,,,,,,,,,,,,left,1.018,0,51,51,205,1,mimézis,KT113,Nő,1999,14,2021-05-13_08h34.08.004,ranlexdec,2020.2.5,Win32,60
,,,,,,,,,,,,right,1.73,0,52,52,171,1,újgazdag,KT113,Nő,1999,14,2021-05-13_08h34.08.004,ranlexdec,2020.2.5,Win32,60
,,,,,,,,,,,,right,0.85,0,53,53,138,1,gyűjtemény,KT113,Nő,1999,14,2021-05-13_08h34.08.004,ranlexdec,2020.2.5,Win32,60
,,,,,,,,,,,,right,1.115,0,54,54,96,1,alfél,KT113,Nő,1999,14,2021-05-13_08h34.08.004,ranlexdec,2020.2.5,Win32,60
,,,,,,,,,,,,right,0.733,0,55,55,177,1,pereg,KT113,Nő,1999,14,2021-05-13_08h34.08.004,ranlexdec,2020.2.5,Win32,60
,,,,,,,,,,,,right,0.695,0,56,56,200,1,biliárd,KT113,Nő,1999,14,2021-05-13_08h34.08.004,ranlexdec,2020.2.5,Win32,60
,,,,,,,,,,,,left,1.679,0,57,57,91,1,tajtásos,KT113,Nő,1999,14,2021-05-13_08h34.08.004,ranlexdec,2020.2.5,Win32,60
,,,,,,,,,,,,right,0.729,0,58,58,151,1,komplex,KT113,Nő,1999,14,2021-05-13_08h34.08.004,ranlexdec,2020.2.5,Win32,60
,,,,,,,,,,,,left,1.118,0,59,59,215,1,neoprén,KT113,Nő,1999,14,2021-05-13_08h34.08.004,ranlexdec,2020.2.5,Win32,60
,,,,,,,,,,,,left,1.583,0,60,60,66,1,parkkói,KT113,Nő,1999,14,2021-05-13_08h34.08.004,ranlexdec,2020.2.5,Win32,60
,,,,,,,,,,,,left,0.965,0,61,61,225,1,bajadér,KT113,Nő,1999,14,2021-05-13_08h34.08.004,ranlexdec,2020.2.5,Win32,60
,,,,,,,,,,,,right,0.901,0,62,62,133,1,hübrisz,KT113,Nő,1999,14,2021-05-13_08h34.08.004,ranlexdec,2020.2.5,Win32,60
,,,,,,,,,,,,right,0.601,0,63,63,179,1,töredék,KT113,Nő,1999,14,2021-05-13_08h34.08.004,ranlexdec,2020.2.5,Win32,60
,,,,,,,,,,,,right,3.947,0,64,64,44,1,ingváll,KT113,Nő,1999,14,2021-05-13_08h34.08.004,ranlexdec,2020.2.5,Win32,60
,,,,,,,,,,,,right,1.268,0,65,65,145,1,kurtít,KT113,Nő,1999,14,2021-05-13_08h34.08.004,ranlexdec,2020.2.5,Win32,60
,,,,,,,,,,,,right,0.633,0,66,66,80,1,darab,KT113,Nő,1999,14,2021-05-13_08h34.08.004,ranlexdec,2020.2.5,Win32,60
,,,,,,,,,,,,left,0.932,0,67,67,141,1,hider,KT113,Nő,1999,14,2021-05-13_08h34.08.004,ranlexdec,2020.2.5,Win32,60
,,,,,,,,,,,,left,0.897,0,68,68,26,1,aurult,KT113,Nő,1999,14,2021-05-13_08h34.08.004,ranlexdec,2020.2.5,Win32,60
,,,,,,,,,,,,right,0.88,0,69,69,34,1,csengettyű,KT113,Nő,1999,14,2021-05-13_08h34.08.004,ranlexdec,2020.2.5,Win32,60
,,,,,,,,,,,,left,1.663,0,70,70,125,1,úszamos,KT113,Nő,1999,14,2021-05-13_08h34.08.004,ranlexdec,2020.2.5,Win32,60
,,,,,,,,,,,,right,1.148,0,71,71,48,1,reagál,KT113,Nő,1999,14,2021-05-13_08h34.08.004,ranlexdec,2020.2.5,Win32,60
,,,,,,,,,,,,left,2.097,0,72,72,167,1,vabank,KT113,Nő,1999,14,2021-05-13_08h34.08.004,ranlexdec,2020.2.5,Win32,60
,,,,,,,,,,,,left,1.849,0,73,73,121,1,aggófű,KT113,Nő,1999,14,2021-05-13_08h34.08.004,ranlexdec,2020.2.5,Win32,60
,,,,,,,,,,,,right,1.398,0,74,74,148,1,mellényzseb,KT113,Nő,1999,14,2021-05-13_08h34.08.004,ranlexdec,2020.2.5,Win32,60
,,,,,,,,,,,,left,2.533,0,75,75,164,1,kurzivál,KT113,Nő,1999,14,2021-05-13_08h34.08.004,ranlexdec,2020.2.5,Win32,60
,,,,,,,,,,,,left,2.265,0,76,76,117,1,ószeven,KT113,Nő,1999,14,2021-05-13_08h34.08.004,ranlexdec,2020.2.5,Win32,60
,,,,,,,,,,,,right,0.682,0,77,77,213,1,eszköz,KT113,Nő,1999,14,2021-05-13_08h34.08.004,ranlexdec,2020.2.5,Win32,60
,,,,,,,,,,,,left,5.477,0,78,78,46,1,kurzív,KT113,Nő,1999,14,2021-05-13_08h34.08.004,ranlexdec,2020.2.5,Win32,60
,,,,,,,,,,,,right,1.048,0,79,79,99,1,sárgaréz,KT113,Nő,1999,14,2021-05-13_08h34.08.004,ranlexdec,2020.2.5,Win32,60
,,,,,,,,,,,,right,0.518,0,80,80,79,1,extrém,KT113,Nő,1999,14,2021-05-13_08h34.08.004,ranlexdec,2020.2.5,Win32,60
,,,,,,,,,,,,left,1.697,0,81,81,49,1,ernyak,KT113,Nő,1999,14,2021-05-13_08h34.08.004,ranlexdec,2020.2.5,Win32,60
,,,,,,,,,,,,left,14.91,0,82,82,198,1,lublika,KT113,Nő,1999,14,2021-05-13_08h34.08.004,ranlexdec,2020.2.5,Win32,60
,,,,,,,,,,,,left,3.451,0,83,83,242,1,rekvizit,KT113,Nő,1999,14,2021-05-13_08h34.08.004,ranlexdec,2020.2.5,Win32,60
,,,,,,,,,,,,right,0.753,0,84,84,210,1,karakter,KT113,Nő,1999,14,2021-05-13_08h34.08.004,ranlexdec,2020.2.5,Win32,60
,,,,,,,,,,,,right,0.785,0,85,85,9,1,hajlik,KT113,Nő,1999,14,2021-05-13_08h34.08.004,ranlexdec,2020.2.5,Win32,60
,,,,,,,,,,,,left,2.163,0,86,86,118,1,libling,KT113,Nő,1999,14,2021-05-13_08h34.08.004,ranlexdec,2020.2.5,Win32,60
,,,,,,,,,,,,right,1.997,0,87,87,22,1,arzénsav,KT113,Nő,1999,14,2021-05-13_08h34.08.004,ranlexdec,2020.2.5,Win32,60
,,,,,,,,,,,,right,1.081,0,88,88,234,1,fertilis,KT113,Nő,1999,14,2021-05-13_08h34.08.004,ranlexdec,2020.2.5,Win32,60
,,,,,,,,,,,,left,0.915,0,89,89,150,1,orront,KT113,Nő,1999,14,2021-05-13_08h34.08.004,ranlexdec,2020.2.5,Win32,60
,,,,,,,,,,,,right,0.598,0,90,90,58,1,barát,KT113,Nő,1999,14,2021-05-13_08h34.08.004,ranlexdec,2020.2.5,Win32,60
,,,,,,,,,,,,left,1.096,0,91,91,127,1,rozintem,KT113,Nő,1999,14,2021-05-13_08h34.08.004,ranlexdec,2020.2.5,Win32,60
,,,,,,,,,,,,right,0.816,0,92,92,21,1,heveny,KT113,Nő,1999,14,2021-05-13_08h34.08.004,ranlexdec,2020.2.5,Win32,60
,,,,,,,,,,,,right,0.797,0,93,93,245,1,ellenfél,KT113,Nő,1999,14,2021-05-13_08h34.08.004,ranlexdec,2020.2.5,Win32,60
,,,,,,,,,,,,right,0.802,0,94,94,94,1,rotor,KT113,Nő,1999,14,2021-05-13_08h34.08.004,ranlexdec,2020.2.5,Win32,60
,,,,,,,,,,,,right,1.083,0,95,95,55,1,látszik,KT113,Nő,1999,14,2021-05-13_08h34.08.004,ranlexdec,2020.2.5,Win32,60
,,,,,,,,,,,,left,1.681,0,96,96,17,1,magmatit,KT113,Nő,1999,14,2021-05-13_08h34.08.004,ranlexdec,2020.2.5,Win32,60
,,,,,,,,,,,,left,3.131,0,97,97,229,1,lemesség,KT113,Nő,1999,14,2021-05-13_08h34.08.004,ranlexdec,2020.2.5,Win32,60
,,,,,,,,,,,,left,1.748,0,98,98,30,1,dádá,KT113,Nő,1999,14,2021-05-13_08h34.08.004,ranlexdec,2020.2.5,Win32,60
,,,,,,,,,,,,right,1.364,0,99,99,113,1,piktogram,KT113,Nő,1999,14,2021-05-13_08h34.08.004,ranlexdec,2020.2.5,Win32,60
,,,,,,,,,,,,right,0.784,0,100,100,230,1,délceg,KT113,Nő,1999,14,2021-05-13_08h34.08.004,ranlexdec,2020.2.5,Win32,60
,,,,,,,,,,,,left,3.148,0,101,101,75,1,karnogó,KT113,Nő,1999,14,2021-05-13_08h34.08.004,ranlexdec,2020.2.5,Win32,60
,,,,,,,,,,,,right,2.201,0,102,102,146,1,kondenzcsík,KT113,Nő,1999,14,2021-05-13_08h34.08.004,ranlexdec,2020.2.5,Win32,60
,,,,,,,,,,,,right,1.135,0,103,103,84,1,kúpol,KT113,Nő,1999,14,2021-05-13_08h34.08.004,ranlexdec,2020.2.5,Win32,60
,,,,,,,,,,,,right,1.564,0,104,104,221,1,törődik,KT113,Nő,1999,14,2021-05-13_08h34.08.004,ranlexdec,2020.2.5,Win32,60
,,,,,,,,,,,,left,3.58,0,105,105,216,1,svábtök,KT113,Nő,1999,14,2021-05-13_08h34.08.004,ranlexdec,2020.2.5,Win32,60
,,,,,,,,,,,,right,1.065,0,106,106,130,1,derít,KT113,Nő,1999,14,2021-05-13_08h34.08.004,ranlexdec,2020.2.5,Win32,60
,,,,,,,,,,,,right,0.814,0,107,107,154,1,keresztény,KT113,Nő,1999,14,2021-05-13_08h34.08.004,ranlexdec,2020.2.5,Win32,60
,,,,,,,,,,,,right,0.581,0,108,108,73,1,olaj,KT113,Nő,1999,14,2021-05-13_08h34.08.004,ranlexdec,2020.2.5,Win32,60
,,,,,,,,,,,,right,0.697,0,109,109,86,1,jármű,KT113,Nő,1999,14,2021-05-13_08h34.08.004,ranlexdec,2020.2.5,Win32,60
,,,,,,,,,,,,left,1.348,0,110,110,192,1,norvend,KT113,Nő,1999,14,2021-05-13_08h34.08.004,ranlexdec,2020.2.5,Win32,60
,,,,,,,,,,,,left,1.149,0,111,111,24,1,kosi,KT113,Nő,1999,14,2021-05-13_08h34.08.004,ranlexdec,2020.2.5,Win32,60
,,,,,,,,,,,,right,1.18,0,112,112,11,1,viszkóz,KT113,Nő,1999,14,2021-05-13_08h34.08.004,ranlexdec,2020.2.5,Win32,60
,,,,,,,,,,,,left,1.081,0,113,113,157,1,káder,KT113,Nő,1999,14,2021-05-13_08h34.08.004,ranlexdec,2020.2.5,Win32,60
,,,,,,,,,,,,right,2,0,114,114,56,1,kanalaz,KT113,Nő,1999,14,2021-05-13_08h34.08.004,ranlexdec,2020.2.5,Win32,60
,,,,,,,,,,,,right,0.614,0,115,115,169,1,komoly,KT113,Nő,1999,14,2021-05-13_08h34.08.004,ranlexdec,2020.2.5,Win32,60
,,,,,,,,,,,,left,3.096,0,116,116,112,1,méhezter,KT113,Nő,1999,14,2021-05-13_08h34.08.004,ranlexdec,2020.2.5,Win32,60
,,,,,,,,,,,,right,0.782,0,117,117,88,1,pohár,KT113,Nő,1999,14,2021-05-13_08h34.08.004,ranlexdec,2020.2.5,Win32,60
,,,,,,,,,,,,left,1.301,0,118,118,40,1,diviz,KT113,Nő,1999,14,2021-05-13_08h34.08.004,ranlexdec,2020.2.5,Win32,60
,,,,,,,,,,,,right,0.803,0,119,119,63,1,viszkózus,KT113,Nő,1999,14,2021-05-13_08h34.08.004,ranlexdec,2020.2.5,Win32,60
,,,,,,,,,,,,left,2.435,0,120,120,4,1,viszonvád,KT113,Nő,1999,14,2021-05-13_08h34.08.004,ranlexdec,2020.2.5,Win32,60
,,,,,,,,,,,,right,1.83,0,121,121,206,1,horizont,KT113,Nő,1999,14,2021-05-13_08h34.08.004,ranlexdec,2020.2.5,Win32,60
,,,,,,,,,,,,right,0.814,0,122,122,170,1,változik,KT113,Nő,1999,14,2021-05-13_08h34.08.004,ranlexdec,2020.2.5,Win32,60
,,,,,,,,,,,,left,1.347,0,123,123,47,1,döföl,KT113,Nő,1999,14,2021-05-13_08h34.08.004,ranlexdec,2020.2.5,Win32,60
,,,,,,,,,,,,left,0.951,0,124,124,190,1,rámáz,KT113,Nő,1999,14,2021-05-13_08h34.08.004,ranlexdec,2020.2.5,Win32,60
,,,,,,,,,,,,right,1.335,0,125,125,129,1,turné,KT113,Nő,1999,14,2021-05-13_08h34.08.004,ranlexdec,2020.2.5,Win32,60
,,,,,,,,,,,,right,1.564,0,126,126,60,1,bárányfark,KT113,Nő,1999,14,2021-05-13_08h34.08.004,ranlexdec,2020.2.5,Win32,60
,,,,,,,,,,,,right,0.81,0,127,127,241,1,kárpit,KT113,Nő,1999,14,2021-05-13_08h34.08.004,ranlexdec,2020.2.5,Win32,60
,,,,,,,,,,,,left,1.303,0,128,128,14,1,selypít,KT113,Nő,1999,14,2021-05-13_08h34.08.004,ranlexdec,2020.2.5,Win32,60
,,,,,,,,,,,,left,5.38,0,129,129,29,1,novagár,KT113,Nő,1999,14,2021-05-13_08h34.08.004,ranlexdec,2020.2.5,Win32,60
,,,,,,,,,,,,right,1.383,0,130,130,64,1,hálózsák,KT113,Nő,1999,14,2021-05-13_08h34.08.004,ranlexdec,2020.2.5,Win32,60
,,,,,,,,,,,,left,1.565,0,131,131,83,1,vonzum,KT113,Nő,1999,14,2021-05-13_08h34.08.004,ranlexdec,2020.2.5,Win32,60
,,,,,,,,,,,,right,0.832,0,132,132,162,1,nimbus,KT113,Nő,1999,14,2021-05-13_08h34.08.004,ranlexdec,2020.2.5,Win32,60
,,,,,,,,,,,,left,1.102,0,133,133,52,1,kunyai,KT113,Nő,1999,14,2021-05-13_08h34.08.004,ranlexdec,2020.2.5,Win32,60
,,,,,,,,,,,,left,1.167,0,134,134,23,1,szelégül,KT113,Nő,1999,14,2021-05-13_08h34.08.004,ranlexdec,2020.2.5,Win32,60
,,,,,,,,,,,,right,0.881,0,135,135,110,1,időszak,KT113,Nő,1999,14,2021-05-13_08h34.08.004,ranlexdec,2020.2.5,Win32,60
,,,,,,,,,,,,right,1.082,0,136,136,54,1,fürkész,KT113,Nő,1999,14,2021-05-13_08h34.08.004,ranlexdec,2020.2.5,Win32,60
,,,,,,,,,,,,left,1.566,0,137,137,224,1,truccol,KT113,Nő,1999,14,2021-05-13_08h34.08.004,ranlexdec,2020.2.5,Win32,60
,,,,,,,,,,,,right,0.882,0,138,138,168,1,grafikon,KT113,Nő,1999,14,2021-05-13_08h34.08.004,ranlexdec,2020.2.5,Win32,60
,,,,,,,,,,,,left,1.881,0,139,139,103,1,szabotró,KT113,Nő,1999,14,2021-05-13_08h34.08.004,ranlexdec,2020.2.5,Win32,60
,,,,,,,,,,,,left,1.464,0,140,140,72,1,mihálóz,KT113,Nő,1999,14,2021-05-13_08h34.08.004,ranlexdec,2020.2.5,Win32,60
,,,,,,,,,,,,right,1.332,0,141,141,27,1,sporthorgász,KT113,Nő,1999,14,2021-05-13_08h34.08.004,ranlexdec,2020.2.5,Win32,60
,,,,,,,,,,,,right,2.847,0,142,142,223,1,árstop,KT113,Nő,1999,14,2021-05-13_08h34.08.004,ranlexdec,2020.2.5,Win32,60
,,,,,,,,,,,,left,0.864,0,143,143,203,1,abeti,KT113,Nő,1999,14,2021-05-13_08h34.08.004,ranlexdec,2020.2.5,Win32,60
,,,,,,,,,,,,left,1.897,0,144,144,212,1,farkasbab,KT113,Nő,1999,14,2021-05-13_08h34.08.004,ranlexdec,2020.2.5,Win32,60
,,,,,,,,,,,,left,0.848,0,145,145,77,1,egant,KT113,Nő,1999,14,2021-05-13_08h34.08.004,ranlexdec,2020.2.5,Win32,60
,,,,,,,,,,,,right,1.281,0,146,146,135,1,ion,KT113,Nő,1999,14,2021-05-13_08h34.08.004,ranlexdec,2020.2.5,Win32,60
,,,,,,,,,,,,right,0.815,0,147,147,149,1,anorák,KT113,Nő,1999,14,2021-05-13_08h34.08.004,ranlexdec,2020.2.5,Win32,60
,,,,,,,,,,,,right,0.981,0,148,148,159,1,elegy,KT113,Nő,1999,14,2021-05-13_08h34.08.004,ranlexdec,2020.2.5,Win32,60
,,,,,,,,,,,,right,1.784,0,149,149,13,1,törköly,KT113,Nő,1999,14,2021-05-13_08h34.08.004,ranlexdec,2020.2.5,Win32,60
,,,,,,,,,,,,left,0.853,0,150,150,5,1,retta,KT113,Nő,1999,14,2021-05-13_08h34.08.004,ranlexdec,2020.2.5,Win32,60
,,,,,,,,,,,,right,1.116,0,151,151,226,1,szalicil,KT113,Nő,1999,14,2021-05-13_08h34.08.004,ranlexdec,2020.2.5,Win32,60
,,,,,,,,,,,,right,0.729,0,152,152,238,1,bolgár,KT113,Nő,1999,14,2021-05-13_08h34.08.004,ranlexdec,2020.2.5,Win32,60
,,,,,,,,,,,,right,1.264,0,153,153,115,1,fajansz,KT113,Nő,1999,14,2021-05-13_08h34.08.004,ranlexdec,2020.2.5,Win32,60
,,,,,,,,,,,,left,4.683,0,154,154,233,1,templomoz,KT113,Nő,1999,14,2021-05-13_08h34.08.004,ranlexdec,2020.2.5,Win32,60
,,,,,,,,,,,,right,0.824,0,155,155,8,1,kulcscsont,KT113,Nő,1999,14,2021-05-13_08h34.08.004,ranlexdec,2020.2.5,Win32,60
,,,,,,,,,,,,right,3.131,0,156,156,237,1,forgórész,KT113,Nő,1999,14,2021-05-13_08h34.08.004,ranlexdec,2020.2.5,Win32,60
,,,,,,,,,,,,right,0.948,0,157,157,61,1,régész,KT113,Nő,1999,14,2021-05-13_08h34.08.004,ranlexdec,2020.2.5,Win32,60
,,,,,,,,,,,,left,1.281,0,158,158,2,1,gyásos,KT113,Nő,1999,14,2021-05-13_08h34.08.004,ranlexdec,2020.2.5,Win32,60
,,,,,,,,,,,,right,0.947,0,159,159,228,1,tarol,KT113,Nő,1999,14,2021-05-13_08h34.08.004,ranlexdec,2020.2.5,Win32,60
,,,,,,,,,,,,right,0.778,0,160,160,53,1,puritán,KT113,Nő,1999,14,2021-05-13_08h34.08.004,ranlexdec,2020.2.5,Win32,60
,,,,,,,,,,,,right,0.796,0,161,161,175,1,szilikát,KT113,Nő,1999,14,2021-05-13_08h34.08.004,ranlexdec,2020.2.5,Win32,60
,,,,,,,,,,,,right,0.766,0,162,162,7,1,űrlap,KT113,Nő,1999,14,2021-05-13_08h34.08.004,ranlexdec,2020.2.5,Win32,60
,,,,,,,,,,,,left,1.629,0,163,163,155,1,megpadék,KT113,Nő,1999,14,2021-05-13_08h34.08.004,ranlexdec,2020.2.5,Win32,60
,,,,,,,,,,,,right,0.915,0,164,164,195,1,petél,KT113,Nő,1999,14,2021-05-13_08h34.08.004,ranlexdec,2020.2.5,Win32,60
,,,,,,,,,,,,right,1.815,0,165,165,0,1,irány,KT113,Nő,1999,14,2021-05-13_08h34.08.004,ranlexdec,2020.2.5,Win32,60
,,,,,,,,,,,,right,1.614,0,166,166,209,1,hidegház,KT113,Nő,1999,14,2021-05-13_08h34.08.004,ranlexdec,2020.2.5,Win32,60
,,,,,,,,,,,,right,1.232,0,167,167,152,1,rakódik,KT113,Nő,1999,14,2021-05-13_08h34.08.004,ranlexdec,2020.2.5,Win32,60
,,,,,,,,,,,,right,0.684,0,168,168,208,1,lélek,KT113,Nő,1999,14,2021-05-13_08h34.08.004,ranlexdec,2020.2.5,Win32,60
,,,,,,,,,,,,left,1.35,0,169,169,153,1,kontrapunkt,KT113,Nő,1999,14,2021-05-13_08h34.08.004,ranlexdec,2020.2.5,Win32,60
,,,,,,,,,,,,right,3.382,0,170,170,217,1,ifjít,KT113,Nő,1999,14,2021-05-13_08h34.08.004,ranlexdec,2020.2.5,Win32,60
,,,,,,,,,,,,right,0.701,0,171,171,246,1,beton,KT113,Nő,1999,14,2021-05-13_08h34.08.004,ranlexdec,2020.2.5,Win32,60
,,,,,,,,,,,,right,0.952,0,172,172,32,1,genom,KT113,Nő,1999,14,2021-05-13_08h34.08.004,ranlexdec,2020.2.5,Win32,60
,,,,,,,,,,,,right,0.801,0,173,173,147,1,referál,KT113,Nő,1999,14,2021-05-13_08h34.08.004,ranlexdec,2020.2.5,Win32,60
,,,,,,,,,,,,right,0.634,0,174,174,124,1,alkalom,KT113,Nő,1999,14,2021-05-13_08h34.08.004,ranlexdec,2020.2.5,Win32,60
,,,,,,,,,,,,left,1.214,0,175,175,123,1,luftballon,KT113,Nő,1999,14,2021-05-13_08h34.08.004,ranlexdec,2020.2.5,Win32,60
,,,,,,,,,,,,left,1.097,0,176,176,42,1,összalaj,KT113,Nő,1999,14,2021-05-13_08h34.08.004,ranlexdec,2020.2.5,Win32,60
,,,,,,,,,,,,right,1.064,0,177,177,188,1,sugár,KT113,Nő,1999,14,2021-05-13_08h34.08.004,ranlexdec,2020.2.5,Win32,60
,,,,,,,,,,,,left,0.866,0,178,178,3,1,tömzsa,KT113,Nő,1999,14,2021-05-13_08h34.08.004,ranlexdec,2020.2.5,Win32,60
,,,,,,,,,,,,left,1.084,0,179,179,173,1,glosszáz,KT113,Nő,1999,14,2021-05-13_08h34.08.004,ranlexdec,2020.2.5,Win32,60
,,,,,,,,,,,,left,1.181,0,180,180,38,1,zomogyi,KT113,Nő,1999,14,2021-05-13_08h34.08.004,ranlexdec,2020.2.5,Win32,60
,,,,,,,,,,,,left,1.284,0,181,181,239,1,donhuán,KT113,Nő,1999,14,2021-05-13_08h34.08.004,ranlexdec,2020.2.5,Win32,60
,,,,,,,,,,,,right,1.114,0,182,182,161,1,példakép,KT113,Nő,1999,14,2021-05-13_08h34.08.004,ranlexdec,2020.2.5,Win32,60
,,,,,,,,,,,,left,1.798,0,183,183,81,1,takorák,KT113,Nő,1999,14,2021-05-13_08h34.08.004,ranlexdec,2020.2.5,Win32,60
,,,,,,,,,,,,left,1.18,0,184,184,137,1,aragas,KT113,Nő,1999,14,2021-05-13_08h34.08.004,ranlexdec,2020.2.5,Win32,60
,,,,,,,,,,,,right,0.866,0,185,185,41,1,nagybeteg,KT113,Nő,1999,14,2021-05-13_08h34.08.004,ranlexdec,2020.2.5,Win32,60
,,,,,,,,,,,,right,0.869,0,186,186,196,1,dolgozik,KT113,Nő,1999,14,2021-05-13_08h34.08.004,ranlexdec,2020.2.5,Win32,60
,,,,,,,,,,,,left,0.783,0,187,187,93,1,kilukát,KT113,Nő,1999,14,2021-05-13_08h34.08.004,ranlexdec,2020.2.5,Win32,60
,,,,,,,,,,,,left,1.798,0,188,188,181,1,dohorpák,KT113,Nő,1999,14,2021-05-13_08h34.08.004,ranlexdec,2020.2.5,Win32,60
,,,,,,,,,,,,right,1.448,0,189,189,37,1,lukaszt,KT113,Nő,1999,14,2021-05-13_08h34.08.004,ranlexdec,2020.2.5,Win32,60
,,,,,,,,,,,,left,1.098,0,190,190,134,1,móringol,KT113,Nő,1999,14,2021-05-13_08h34.08.004,ranlexdec,2020.2.5,Win32,60
,,,,,,,,,,,,right,1.431,0,191,191,189,1,konverzál,KT113,Nő,1999,14,2021-05-13_08h34.08.004,ranlexdec,2020.2.5,Win32,60
,,,,,,,,,,,,left,0.93,0,192,192,35,1,türemlik,KT113,Nő,1999,14,2021-05-13_08h34.08.004,ranlexdec,2020.2.5,Win32,60
,,,,,,,,,,,,right,0.698,0,193,193,227,1,kötődik,KT113,Nő,1999,14,2021-05-13_08h34.08.004,ranlexdec,2020.2.5,Win32,60
,,,,,,,,,,,,left,1.468,0,194,194,101,1,nukleon,KT113,Nő,1999,14,2021-05-13_08h34.08.004,ranlexdec,2020.2.5,Win32,60
,,,,,,,,,,,,left,1.217,0,195,195,191,1,hitódó,KT113,Nő,1999,14,2021-05-13_08h34.08.004,ranlexdec,2020.2.5,Win32,60
,,,,,,,,,,,,right,0.735,0,196,196,247,1,ausztrál,KT113,Nő,1999,14,2021-05-13_08h34.08.004,ranlexdec,2020.2.5,Win32,60
,,,,,,,,,,,,right,2.614,0,197,197,70,1,lakotthely,KT113,Nő,1999,14,2021-05-13_08h34.08.004,ranlexdec,2020.2.5,Win32,60
,,,,,,,,,,,,left,1.115,0,198,198,87,1,forrpont,KT113,Nő,1999,14,2021-05-13_08h34.08.004,ranlexdec,2020.2.5,Win32,60
,,,,,,,,,,,,right,3.516,0,199,199,183,1,színpad,KT113,Nő,1999,14,2021-05-13_08h34.08.004,ranlexdec,2020.2.5,Win32,60
,,,,,,,,,,,,left,1.148,0,200,200,219,1,szimboló,KT113,Nő,1999,14,2021-05-13_08h34.08.004,ranlexdec,2020.2.5,Win32,60
,,,,,,,,,,,,left,1.217,0,201,201,97,1,vésségi,KT113,Nő,1999,14,2021-05-13_08h34.08.004,ranlexdec,2020.2.5,Win32,60
,,,,,,,,,,,,right,1.364,0,202,202,211,1,tábornagy,KT113,Nő,1999,14,2021-05-13_08h34.08.004,ranlexdec,2020.2.5,Win32,60
,,,,,,,,,,,,left,1.348,0,203,203,163,1,kollapszus,KT113,Nő,1999,14,2021-05-13_08h34.08.004,ranlexdec,2020.2.5,Win32,60
,,,,,,,,,,,,left,1.067,0,204,204,57,1,lejmol,KT113,Nő,1999,14,2021-05-13_08h34.08.004,ranlexdec,2020.2.5,Win32,60
,,,,,,,,,,,,right,1.447,0,205,205,172,1,kettősfém,KT113,Nő,1999,14,2021-05-13_08h34.08.004,ranlexdec,2020.2.5,Win32,60
,,,,,,,,,,,,left,0.85,0,206,206,204,1,kocskesi,KT113,Nő,1999,14,2021-05-13_08h34.08.004,ranlexdec,2020.2.5,Win32,60
,,,,,,,,,,,,right,0.868,0,207,207,31,1,iszlám,KT113,Nő,1999,14,2021-05-13_08h34.08.004,ranlexdec,2020.2.5,Win32,60
,,,,,,,,,,,,right,0.698,0,208,208,144,1,rövid,KT113,Nő,1999,14,2021-05-13_08h34.08.004,ranlexdec,2020.2.5,Win32,60
,,,,,,,,,,,,right,0.648,0,209,209,136,1,rücsök,KT113,Nő,1999,14,2021-05-13_08h34.08.004,ranlexdec,2020.2.5,Win32,60
,,,,,,,,,,,,right,0.714,0,210,210,140,1,diktátor,KT113,Nő,1999,14,2021-05-13_08h34.08.004,ranlexdec,2020.2.5,Win32,60
,,,,,,,,,,,,right,0.814,0,211,211,100,1,balközép,KT113,Nő,1999,14,2021-05-13_08h34.08.004,ranlexdec,2020.2.5,Win32,60
,,,,,,,,,,,,right,0.719,0,212,212,59,1,ómagyar,KT113,Nő,1999,14,2021-05-13_08h34.08.004,ranlexdec,2020.2.5,Win32,60
,,,,,,,,,,,,left,0.887,0,213,213,1,1,csapdáz,KT113,Nő,1999,14,2021-05-13_08h34.08.004,ranlexdec,2020.2.5,Win32,60
,,,,,,,,,,,,right,11.828,0,214,214,111,1,koenzim,KT113,Nő,1999,14,2021-05-13_08h34.08.004,ranlexdec,2020.2.5,Win32,60
,,,,,,,,,,,,left,1.362,0,215,215,109,1,vényegő,KT113,Nő,1999,14,2021-05-13_08h34.08.004,ranlexdec,2020.2.5,Win32,60
,,,,,,,,,,,,right,13.703,0,216,216,51,1,bajuszfű,KT113,Nő,1999,14,2021-05-13_08h34.08.004,ranlexdec,2020.2.5,Win32,60
,,,,,,,,,,,,right,0.8,0,217,217,176,1,bélyeg,KT113,Nő,1999,14,2021-05-13_08h34.08.004,ranlexdec,2020.2.5,Win32,60
,,,,,,,,,,,,left,0.681,0,218,218,174,1,cianid,KT113,Nő,1999,14,2021-05-13_08h34.08.004,ranlexdec,2020.2.5,Win32,60
,,,,,,,,,,,,left,1.082,0,219,219,186,1,piláf,KT113,Nő,1999,14,2021-05-13_08h34.08.004,ranlexdec,2020.2.5,Win32,60
,,,,,,,,,,,,right,0.849,0,220,220,187,1,testnedv,KT113,Nő,1999,14,2021-05-13_08h34.08.004,ranlexdec,2020.2.5,Win32,60
,,,,,,,,,,,,right,0.731,0,221,221,220,1,csontdarab,KT113,Nő,1999,14,2021-05-13_08h34.08.004,ranlexdec,2020.2.5,Win32,60
,,,,,,,,,,,,right,2.466,0,222,222,76,1,jegedény,KT113,Nő,1999,14,2021-05-13_08h34.08.004,ranlexdec,2020.2.5,Win32,60
,,,,,,,,,,,,right,0.798,0,223,223,231,1,igény,KT113,Nő,1999,14,2021-05-13_08h34.08.004,ranlexdec,2020.2.5,Win32,60
,,,,,,,,,,,,left,1.35,0,224,224,18,1,csapattest,KT113,Nő,1999,14,2021-05-13_08h34.08.004,ranlexdec,2020.2.5,Win32,60
,,,,,,,,,,,,right,0.697,0,225,225,132,1,hatalom,KT113,Nő,1999,14,2021-05-13_08h34.08.004,ranlexdec,2020.2.5,Win32,60
,,,,,,,,,,,,right,1.798,0,226,226,158,1,hidroxid,KT113,Nő,1999,14,2021-05-13_08h34.08.004,ranlexdec,2020.2.5,Win32,60
,,,,,,,,,,,,left,2.05,0,227,227,69,1,gerencsér,KT113,Nő,1999,14,2021-05-13_08h34.08.004,ranlexdec,2020.2.5,Win32,60
,,,,,,,,,,,,right,1.363,0,228,228,95,1,skubizik,KT113,Nő,1999,14,2021-05-13_08h34.08.004,ranlexdec,2020.2.5,Win32,60
,,,,,,,,,,,,right,0.78,0,229,229,43,1,közhely,KT113,Nő,1999,14,2021-05-13_08h34.08.004,ranlexdec,2020.2.5,Win32,60
,,,,,,,,,,,,right,1.034,0,230,230,90,1,orális,KT113,Nő,1999,14,2021-05-13_08h34.08.004,ranlexdec,2020.2.5,Win32,60
,,,,,,,,,,,,right,1.234,0,231,231,10,1,nárcisz,KT113,Nő,1999,14,2021-05-13_08h34.08.004,ranlexdec,2020.2.5,Win32,60
,,,,,,,,,,,,right,1.247,0,232,232,249,1,kencéz,KT113,Nő,1999,14,2021-05-13_08h34.08.004,ranlexdec,2020.2.5,Win32,60
,,,,,,,,,,,,right,1.284,0,233,233,185,1,gyülemlik,KT113,Nő,1999,14,2021-05-13_08h34.08.004,ranlexdec,2020.2.5,Win32,60
,,,,,,,,,,,,left,1.019,0,234,234,232,1,tropikus,KT113,Nő,1999,14,2021-05-13_08h34.08.004,ranlexdec,2020.2.5,Win32,60
,,,,,,,,,,,,left,1.746,0,235,235,108,1,konyrúd,KT113,Nő,1999,14,2021-05-13_08h34.08.004,ranlexdec,2020.2.5,Win32,60
,,,,,,,,,,,,right,0.683,0,236,236,199,1,ború,KT113,Nő,1999,14,2021-05-13_08h34.08.004,ranlexdec,2020.2.5,Win32,60
,,,,,,,,,,,,right,0.816,0,237,237,92,1,lágyék,KT113,Nő,1999,14,2021-05-13_08h34.08.004,ranlexdec,2020.2.5,Win32,60
,,,,,,,,,,,,right,0.748,0,238,238,33,1,kalcium,KT113,Nő,1999,14,2021-05-13_08h34.08.004,ranlexdec,2020.2.5,Win32,60
,,,,,,,,,,,,left,1.186,0,239,239,119,1,cugehőr,KT113,Nő,1999,14,2021-05-13_08h34.08.004,ranlexdec,2020.2.5,Win32,60
,,,,,,,,,,,,right,0.714,0,240,240,25,1,reform,KT113,Nő,1999,14,2021-05-13_08h34.08.004,ranlexdec,2020.2.5,Win32,60
,,,,,,,,,,,,right,11.411,0,241,241,180,1,adszorbens,KT113,Nő,1999,14,2021-05-13_08h34.08.004,ranlexdec,2020.2.5,Win32,60
,,,,,,,,,,,,right,2.747,0,242,242,28,1,gazdag,KT113,Nő,1999,14,2021-05-13_08h34.08.004,ranlexdec,2020.2.5,Win32,60
,,,,,,,,,,,,right,0.814,0,243,243,89,1,szokik,KT113,Nő,1999,14,2021-05-13_08h34.08.004,ranlexdec,2020.2.5,Win32,60
,,,,,,,,,,,,left,2.115,0,244,244,102,1,pentez,KT113,Nő,1999,14,2021-05-13_08h34.08.004,ranlexdec,2020.2.5,Win32,60
,,,,,,,,,,,,left,2.265,0,245,245,71,1,extuál,KT113,Nő,1999,14,2021-05-13_08h34.08.004,ranlexdec,2020.2.5,Win32,60
,,,,,,,,,,,,right,0.752,0,246,246,116,1,árus,KT113,Nő,1999,14,2021-05-13_08h34.08.004,ranlexdec,2020.2.5,Win32,60
,,,,,,,,,,,,left,2.848,0,247,247,218,1,tortya,KT113,Nő,1999,14,2021-05-13_08h34.08.004,ranlexdec,2020.2.5,Win32,60
,,,,,,,,,,,,right,0.964,0,248,248,182,1,nagyszámú,KT113,Nő,1999,14,2021-05-13_08h34.08.004,ranlexdec,2020.2.5,Win32,60
,,,,,,,,,,,,right,1.381,0,249,249,243,1,dipeptid,KT113,Nő,1999,14,2021-05-13_08h34.08.004,ranlexdec,2020.2.5,Win32,60
