ready2_2.keys,ready2_2.rt,ready2.keys,ready2.rt,key_resp.keys,key_resp.rt,key_resp_3.keys,key_resp_3.rt,key_resp_2.keys,key_resp_2.rt,ready3.keys,ready3.rt,resp.keys,resp.rt,withinBlock.thisRepN,withinBlock.thisTrialN,withinBlock.thisN,withinBlock.thisIndex,withinBlock.ran,word,Azonosító,Az Ön neme,Születési éve,Hány évet töltött az iskolapadban (egyetemet is beleértve),date,expName,psychopyVersion,OS,frameRate
space,21.445995,space,20.46068,right,1.35824,left,1.56623,left,3.49019,space,8.60609,right,3.534105,0,0,0,95,1,skubizik,KT131,nő,1990,16,2021-05-13_09h40.29.514,ranlexdec,2020.2.5,Win32,60
,,,,,,,,,,,,left,2.29181,0,1,1,153,1,kontrapunkt,KT131,nő,1990,16,2021-05-13_09h40.29.514,ranlexdec,2020.2.5,Win32,60
,,,,,,,,,,,,right,1.408495,0,2,2,226,1,szalicil,KT131,nő,1990,16,2021-05-13_09h40.29.514,ranlexdec,2020.2.5,Win32,60
,,,,,,,,,,,,right,1.610215,0,3,3,222,1,nyersarany,KT131,nő,1990,16,2021-05-13_09h40.29.514,ranlexdec,2020.2.5,Win32,60
,,,,,,,,,,,,right,1.485525,0,4,4,174,1,cianid,KT131,nő,1990,16,2021-05-13_09h40.29.514,ranlexdec,2020.2.5,Win32,60
,,,,,,,,,,,,right,0.92749,0,5,5,132,1,hatalom,KT131,nő,1990,16,2021-05-13_09h40.29.514,ranlexdec,2020.2.5,Win32,60
,,,,,,,,,,,,right,1.0182,0,6,6,45,1,népszerű,KT131,nő,1990,16,2021-05-13_09h40.29.514,ranlexdec,2020.2.5,Win32,60
,,,,,,,,,,,,right,0.66183,0,7,7,58,1,barát,KT131,nő,1990,16,2021-05-13_09h40.29.514,ranlexdec,2020.2.5,Win32,60
,,,,,,,,,,,,left,0.950725,0,8,8,93,1,kilukát,KT131,nő,1990,16,2021-05-13_09h40.29.514,ranlexdec,2020.2.5,Win32,60
,,,,,,,,,,,,right,0.83577,0,9,9,85,1,glükóz,KT131,nő,1990,16,2021-05-13_09h40.29.514,ranlexdec,2020.2.5,Win32,60
,,,,,,,,,,,,right,0.94345,0,10,10,194,1,végbél,KT131,nő,1990,16,2021-05-13_09h40.29.514,ranlexdec,2020.2.5,Win32,60
,,,,,,,,,,,,left,1.75396,0,11,11,23,1,szelégül,KT131,nő,1990,16,2021-05-13_09h40.29.514,ranlexdec,2020.2.5,Win32,60
,,,,,,,,,,,,right,0.78035,0,12,12,241,1,kárpit,KT131,nő,1990,16,2021-05-13_09h40.29.514,ranlexdec,2020.2.5,Win32,60
,,,,,,,,,,,,right,0.89422,0,13,13,211,1,tábornagy,KT131,nő,1990,16,2021-05-13_09h40.29.514,ranlexdec,2020.2.5,Win32,60
,,,,,,,,,,,,left,4.671535,0,14,14,84,1,kúpol,KT131,nő,1990,16,2021-05-13_09h40.29.514,ranlexdec,2020.2.5,Win32,60
,,,,,,,,,,,,right,0.74652,0,15,15,244,1,kislány,KT131,nő,1990,16,2021-05-13_09h40.29.514,ranlexdec,2020.2.5,Win32,60
,,,,,,,,,,,,right,0.79183,0,16,16,0,1,irány,KT131,nő,1990,16,2021-05-13_09h40.29.514,ranlexdec,2020.2.5,Win32,60
,,,,,,,,,,,,right,3.300405,0,17,17,232,1,tropikus,KT131,nő,1990,16,2021-05-13_09h40.29.514,ranlexdec,2020.2.5,Win32,60
,,,,,,,,,,,,right,2.691805,0,18,18,70,1,lakotthely,KT131,nő,1990,16,2021-05-13_09h40.29.514,ranlexdec,2020.2.5,Win32,60
,,,,,,,,,,,,right,0.883365,0,19,19,101,1,nukleon,KT131,nő,1990,16,2021-05-13_09h40.29.514,ranlexdec,2020.2.5,Win32,60
,,,,,,,,,,,,right,0.94561,0,20,20,94,1,rotor,KT131,nő,1990,16,2021-05-13_09h40.29.514,ranlexdec,2020.2.5,Win32,60
,,,,,,,,,,,,left,0.89416,0,21,21,103,1,szabotró,KT131,nő,1990,16,2021-05-13_09h40.29.514,ranlexdec,2020.2.5,Win32,60
,,,,,,,,,,,,right,0.71881,0,22,22,183,1,színpad,KT131,nő,1990,16,2021-05-13_09h40.29.514,ranlexdec,2020.2.5,Win32,60
,,,,,,,,,,,,right,0.908115,0,23,23,22,1,arzénsav,KT131,nő,1990,16,2021-05-13_09h40.29.514,ranlexdec,2020.2.5,Win32,60
,,,,,,,,,,,,right,0.88051,0,24,24,147,1,referál,KT131,nő,1990,16,2021-05-13_09h40.29.514,ranlexdec,2020.2.5,Win32,60
,,,,,,,,,,,,right,1.42667,0,25,25,74,1,püffeszt,KT131,nő,1990,16,2021-05-13_09h40.29.514,ranlexdec,2020.2.5,Win32,60
,,,,,,,,,,,,left,2.01403,0,26,26,118,1,libling,KT131,nő,1990,16,2021-05-13_09h40.29.514,ranlexdec,2020.2.5,Win32,60
,,,,,,,,,,,,left,1.14335,0,27,27,125,1,úszamos,KT131,nő,1990,16,2021-05-13_09h40.29.514,ranlexdec,2020.2.5,Win32,60
,,,,,,,,,,,,right,0.853855,0,28,28,98,1,mítosz,KT131,nő,1990,16,2021-05-13_09h40.29.514,ranlexdec,2020.2.5,Win32,60
,,,,,,,,,,,,right,0.99947,0,29,29,62,1,bizmut,KT131,nő,1990,16,2021-05-13_09h40.29.514,ranlexdec,2020.2.5,Win32,60
,,,,,,,,,,,,right,1.157735,0,30,30,148,1,mellényzseb,KT131,nő,1990,16,2021-05-13_09h40.29.514,ranlexdec,2020.2.5,Win32,60
,,,,,,,,,,,,right,1.43579,0,31,31,35,1,türemlik,KT131,nő,1990,16,2021-05-13_09h40.29.514,ranlexdec,2020.2.5,Win32,60
,,,,,,,,,,,,right,4.042815,0,32,32,212,1,farkasbab,KT131,nő,1990,16,2021-05-13_09h40.29.514,ranlexdec,2020.2.5,Win32,60
,,,,,,,,,,,,right,0.76215,0,33,33,248,1,örmény,KT131,nő,1990,16,2021-05-13_09h40.29.514,ranlexdec,2020.2.5,Win32,60
,,,,,,,,,,,,right,0.796875,0,34,34,236,1,csatázik,KT131,nő,1990,16,2021-05-13_09h40.29.514,ranlexdec,2020.2.5,Win32,60
,,,,,,,,,,,,left,0.815375,0,35,35,203,1,abeti,KT131,nő,1990,16,2021-05-13_09h40.29.514,ranlexdec,2020.2.5,Win32,60
,,,,,,,,,,,,left,0.94582,0,36,36,46,1,kurzív,KT131,nő,1990,16,2021-05-13_09h40.29.514,ranlexdec,2020.2.5,Win32,60
,,,,,,,,,,,,left,1.91943,0,37,37,239,1,donhuán,KT131,nő,1990,16,2021-05-13_09h40.29.514,ranlexdec,2020.2.5,Win32,60
,,,,,,,,,,,,right,0.712505,0,38,38,55,1,látszik,KT131,nő,1990,16,2021-05-13_09h40.29.514,ranlexdec,2020.2.5,Win32,60
,,,,,,,,,,,,left,1.076755,0,39,39,107,1,kelől,KT131,nő,1990,16,2021-05-13_09h40.29.514,ranlexdec,2020.2.5,Win32,60
,,,,,,,,,,,,right,0.747795,0,40,40,154,1,keresztény,KT131,nő,1990,16,2021-05-13_09h40.29.514,ranlexdec,2020.2.5,Win32,60
,,,,,,,,,,,,right,0.631775,0,41,41,31,1,iszlám,KT131,nő,1990,16,2021-05-13_09h40.29.514,ranlexdec,2020.2.5,Win32,60
,,,,,,,,,,,,right,0.605365,0,42,42,176,1,bélyeg,KT131,nő,1990,16,2021-05-13_09h40.29.514,ranlexdec,2020.2.5,Win32,60
,,,,,,,,,,,,right,0.797955,0,43,43,27,1,sporthorgász,KT131,nő,1990,16,2021-05-13_09h40.29.514,ranlexdec,2020.2.5,Win32,60
,,,,,,,,,,,,left,4.02137,0,44,44,100,1,balközép,KT131,nő,1990,16,2021-05-13_09h40.29.514,ranlexdec,2020.2.5,Win32,60
,,,,,,,,,,,,right,0.829765,0,45,45,61,1,régész,KT131,nő,1990,16,2021-05-13_09h40.29.514,ranlexdec,2020.2.5,Win32,60
,,,,,,,,,,,,right,0.964935,0,46,46,187,1,testnedv,KT131,nő,1990,16,2021-05-13_09h40.29.514,ranlexdec,2020.2.5,Win32,60
,,,,,,,,,,,,right,0.63295,0,47,47,135,1,ion,KT131,nő,1990,16,2021-05-13_09h40.29.514,ranlexdec,2020.2.5,Win32,60
,,,,,,,,,,,,left,0.810065,0,48,48,141,1,hider,KT131,nő,1990,16,2021-05-13_09h40.29.514,ranlexdec,2020.2.5,Win32,60
,,,,,,,,,,,,left,1.580125,0,49,49,38,1,zomogyi,KT131,nő,1990,16,2021-05-13_09h40.29.514,ranlexdec,2020.2.5,Win32,60
,,,,,,,,,,,,right,0.74476,0,50,50,25,1,reform,KT131,nő,1990,16,2021-05-13_09h40.29.514,ranlexdec,2020.2.5,Win32,60
,,,,,,,,,,,,right,0.579065,0,51,51,104,1,dolog,KT131,nő,1990,16,2021-05-13_09h40.29.514,ranlexdec,2020.2.5,Win32,60
,,,,,,,,,,,,left,2.730125,0,52,52,60,1,bárányfark,KT131,nő,1990,16,2021-05-13_09h40.29.514,ranlexdec,2020.2.5,Win32,60
,,,,,,,,,,,,left,0.854625,0,53,53,102,1,pentez,KT131,nő,1990,16,2021-05-13_09h40.29.514,ranlexdec,2020.2.5,Win32,60
,,,,,,,,,,,,right,0.662385,0,54,54,193,1,bacon,KT131,nő,1990,16,2021-05-13_09h40.29.514,ranlexdec,2020.2.5,Win32,60
,,,,,,,,,,,,left,1.912205,0,55,55,66,1,parkkói,KT131,nő,1990,16,2021-05-13_09h40.29.514,ranlexdec,2020.2.5,Win32,60
,,,,,,,,,,,,left,1.44993,0,56,56,17,1,magmatit,KT131,nő,1990,16,2021-05-13_09h40.29.514,ranlexdec,2020.2.5,Win32,60
,,,,,,,,,,,,right,1.17733,0,57,57,170,1,változik,KT131,nő,1990,16,2021-05-13_09h40.29.514,ranlexdec,2020.2.5,Win32,60
,,,,,,,,,,,,right,0.800605,0,58,58,184,1,profit,KT131,nő,1990,16,2021-05-13_09h40.29.514,ranlexdec,2020.2.5,Win32,60
,,,,,,,,,,,,right,0.516315,0,59,59,144,1,rövid,KT131,nő,1990,16,2021-05-13_09h40.29.514,ranlexdec,2020.2.5,Win32,60
,,,,,,,,,,,,right,0.93463,0,60,60,221,1,törődik,KT131,nő,1990,16,2021-05-13_09h40.29.514,ranlexdec,2020.2.5,Win32,60
,,,,,,,,,,,,left,0.91845,0,61,61,81,1,takorák,KT131,nő,1990,16,2021-05-13_09h40.29.514,ranlexdec,2020.2.5,Win32,60
,,,,,,,,,,,,right,0.56669,0,62,62,138,1,gyűjtemény,KT131,nő,1990,16,2021-05-13_09h40.29.514,ranlexdec,2020.2.5,Win32,60
,,,,,,,,,,,,right,0.76829,0,63,63,149,1,anorák,KT131,nő,1990,16,2021-05-13_09h40.29.514,ranlexdec,2020.2.5,Win32,60
,,,,,,,,,,,,left,1.442685,0,64,64,142,1,storítő,KT131,nő,1990,16,2021-05-13_09h40.29.514,ranlexdec,2020.2.5,Win32,60
,,,,,,,,,,,,left,2.69342,0,65,65,180,1,adszorbens,KT131,nő,1990,16,2021-05-13_09h40.29.514,ranlexdec,2020.2.5,Win32,60
,,,,,,,,,,,,right,1.761685,0,66,66,243,1,dipeptid,KT131,nő,1990,16,2021-05-13_09h40.29.514,ranlexdec,2020.2.5,Win32,60
,,,,,,,,,,,,right,0.698505,0,67,67,6,1,csüggeszt,KT131,nő,1990,16,2021-05-13_09h40.29.514,ranlexdec,2020.2.5,Win32,60
,,,,,,,,,,,,left,0.94676,0,68,68,2,1,gyásos,KT131,nő,1990,16,2021-05-13_09h40.29.514,ranlexdec,2020.2.5,Win32,60
,,,,,,,,,,,,right,0.729315,0,69,69,188,1,sugár,KT131,nő,1990,16,2021-05-13_09h40.29.514,ranlexdec,2020.2.5,Win32,60
,,,,,,,,,,,,right,1.08529,0,70,70,175,1,szilikát,KT131,nő,1990,16,2021-05-13_09h40.29.514,ranlexdec,2020.2.5,Win32,60
,,,,,,,,,,,,right,0.98302,0,71,71,99,1,sárgaréz,KT131,nő,1990,16,2021-05-13_09h40.29.514,ranlexdec,2020.2.5,Win32,60
,,,,,,,,,,,,right,0.88315,0,72,72,140,1,diktátor,KT131,nő,1990,16,2021-05-13_09h40.29.514,ranlexdec,2020.2.5,Win32,60
,,,,,,,,,,,,left,0.89954,0,73,73,75,1,karnogó,KT131,nő,1990,16,2021-05-13_09h40.29.514,ranlexdec,2020.2.5,Win32,60
,,,,,,,,,,,,right,0.849045,0,74,74,168,1,grafikon,KT131,nő,1990,16,2021-05-13_09h40.29.514,ranlexdec,2020.2.5,Win32,60
,,,,,,,,,,,,left,1.91703,0,75,75,121,1,aggófű,KT131,nő,1990,16,2021-05-13_09h40.29.514,ranlexdec,2020.2.5,Win32,60
,,,,,,,,,,,,right,0.649785,0,76,76,196,1,dolgozik,KT131,nő,1990,16,2021-05-13_09h40.29.514,ranlexdec,2020.2.5,Win32,60
,,,,,,,,,,,,right,1.47438,0,77,77,182,1,nagyszámú,KT131,nő,1990,16,2021-05-13_09h40.29.514,ranlexdec,2020.2.5,Win32,60
,,,,,,,,,,,,right,0.798525,0,78,78,56,1,kanalaz,KT131,nő,1990,16,2021-05-13_09h40.29.514,ranlexdec,2020.2.5,Win32,60
,,,,,,,,,,,,right,0.58294,0,79,79,208,1,lélek,KT131,nő,1990,16,2021-05-13_09h40.29.514,ranlexdec,2020.2.5,Win32,60
,,,,,,,,,,,,right,2.315605,0,80,80,249,1,kencéz,KT131,nő,1990,16,2021-05-13_09h40.29.514,ranlexdec,2020.2.5,Win32,60
,,,,,,,,,,,,left,1.915285,0,81,81,1,1,csapdáz,KT131,nő,1990,16,2021-05-13_09h40.29.514,ranlexdec,2020.2.5,Win32,60
,,,,,,,,,,,,right,0.6729,0,82,82,12,1,gyapot,KT131,nő,1990,16,2021-05-13_09h40.29.514,ranlexdec,2020.2.5,Win32,60
,,,,,,,,,,,,right,0.71649,0,83,83,64,1,hálózsák,KT131,nő,1990,16,2021-05-13_09h40.29.514,ranlexdec,2020.2.5,Win32,60
,,,,,,,,,,,,right,0.62753,0,84,84,78,1,törékeny,KT131,nő,1990,16,2021-05-13_09h40.29.514,ranlexdec,2020.2.5,Win32,60
,,,,,,,,,,,,left,0.89878,0,85,85,77,1,egant,KT131,nő,1990,16,2021-05-13_09h40.29.514,ranlexdec,2020.2.5,Win32,60
,,,,,,,,,,,,right,1.153585,0,86,86,7,1,űrlap,KT131,nő,1990,16,2021-05-13_09h40.29.514,ranlexdec,2020.2.5,Win32,60
,,,,,,,,,,,,left,1.617985,0,87,87,233,1,templomoz,KT131,nő,1990,16,2021-05-13_09h40.29.514,ranlexdec,2020.2.5,Win32,60
,,,,,,,,,,,,right,1.488615,0,88,88,190,1,rámáz,KT131,nő,1990,16,2021-05-13_09h40.29.514,ranlexdec,2020.2.5,Win32,60
,,,,,,,,,,,,left,1.29345,0,89,89,87,1,forrpont,KT131,nő,1990,16,2021-05-13_09h40.29.514,ranlexdec,2020.2.5,Win32,60
,,,,,,,,,,,,right,1.0495,0,90,90,19,1,tangózik,KT131,nő,1990,16,2021-05-13_09h40.29.514,ranlexdec,2020.2.5,Win32,60
,,,,,,,,,,,,left,2.420955,0,91,91,4,1,viszonvád,KT131,nő,1990,16,2021-05-13_09h40.29.514,ranlexdec,2020.2.5,Win32,60
,,,,,,,,,,,,left,0.752185,0,92,92,5,1,retta,KT131,nő,1990,16,2021-05-13_09h40.29.514,ranlexdec,2020.2.5,Win32,60
,,,,,,,,,,,,right,1.04855,0,93,93,32,1,genom,KT131,nő,1990,16,2021-05-13_09h40.29.514,ranlexdec,2020.2.5,Win32,60
,,,,,,,,,,,,right,0.818065,0,94,94,152,1,rakódik,KT131,nő,1990,16,2021-05-13_09h40.29.514,ranlexdec,2020.2.5,Win32,60
,,,,,,,,,,,,left,1.63219,0,95,95,76,1,jegedény,KT131,nő,1990,16,2021-05-13_09h40.29.514,ranlexdec,2020.2.5,Win32,60
,,,,,,,,,,,,left,1.53294,0,96,96,51,1,bajuszfű,KT131,nő,1990,16,2021-05-13_09h40.29.514,ranlexdec,2020.2.5,Win32,60
,,,,,,,,,,,,left,1.05721,0,97,97,65,1,infimum,KT131,nő,1990,16,2021-05-13_09h40.29.514,ranlexdec,2020.2.5,Win32,60
,,,,,,,,,,,,left,3.827445,0,98,98,237,1,forgórész,KT131,nő,1990,16,2021-05-13_09h40.29.514,ranlexdec,2020.2.5,Win32,60
,,,,,,,,,,,,right,1.4572,0,99,99,44,1,ingváll,KT131,nő,1990,16,2021-05-13_09h40.29.514,ranlexdec,2020.2.5,Win32,60
,,,,,,,,,,,,right,0.705825,0,100,100,129,1,turné,KT131,nő,1990,16,2021-05-13_09h40.29.514,ranlexdec,2020.2.5,Win32,60
,,,,,,,,,,,,left,0.867225,0,101,101,223,1,árstop,KT131,nő,1990,16,2021-05-13_09h40.29.514,ranlexdec,2020.2.5,Win32,60
,,,,,,,,,,,,right,1.18204,0,102,102,225,1,bajadér,KT131,nő,1990,16,2021-05-13_09h40.29.514,ranlexdec,2020.2.5,Win32,60
,,,,,,,,,,,,right,0.733715,0,103,103,123,1,luftballon,KT131,nő,1990,16,2021-05-13_09h40.29.514,ranlexdec,2020.2.5,Win32,60
,,,,,,,,,,,,left,1.60288,0,104,104,164,1,kurzivál,KT131,nő,1990,16,2021-05-13_09h40.29.514,ranlexdec,2020.2.5,Win32,60
,,,,,,,,,,,,right,0.60316,0,105,105,185,1,gyülemlik,KT131,nő,1990,16,2021-05-13_09h40.29.514,ranlexdec,2020.2.5,Win32,60
,,,,,,,,,,,,right,1.0782,0,106,106,150,1,orront,KT131,nő,1990,16,2021-05-13_09h40.29.514,ranlexdec,2020.2.5,Win32,60
,,,,,,,,,,,,right,0.7962,0,107,107,178,1,sziszeg,KT131,nő,1990,16,2021-05-13_09h40.29.514,ranlexdec,2020.2.5,Win32,60
,,,,,,,,,,,,right,0.845645,0,108,108,59,1,ómagyar,KT131,nő,1990,16,2021-05-13_09h40.29.514,ranlexdec,2020.2.5,Win32,60
,,,,,,,,,,,,right,0.84335,0,109,109,57,1,lejmol,KT131,nő,1990,16,2021-05-13_09h40.29.514,ranlexdec,2020.2.5,Win32,60
,,,,,,,,,,,,left,0.845365,0,110,110,24,1,kosi,KT131,nő,1990,16,2021-05-13_09h40.29.514,ranlexdec,2020.2.5,Win32,60
,,,,,,,,,,,,right,0.58526,0,111,111,28,1,gazdag,KT131,nő,1990,16,2021-05-13_09h40.29.514,ranlexdec,2020.2.5,Win32,60
,,,,,,,,,,,,right,3.190625,0,112,112,220,1,csontdarab,KT131,nő,1990,16,2021-05-13_09h40.29.514,ranlexdec,2020.2.5,Win32,60
,,,,,,,,,,,,right,0.668,0,113,113,136,1,rücsök,KT131,nő,1990,16,2021-05-13_09h40.29.514,ranlexdec,2020.2.5,Win32,60
,,,,,,,,,,,,right,0.611555,0,114,114,201,1,szempont,KT131,nő,1990,16,2021-05-13_09h40.29.514,ranlexdec,2020.2.5,Win32,60
,,,,,,,,,,,,right,0.88425,0,115,115,230,1,délceg,KT131,nő,1990,16,2021-05-13_09h40.29.514,ranlexdec,2020.2.5,Win32,60
,,,,,,,,,,,,right,0.629975,0,116,116,124,1,alkalom,KT131,nő,1990,16,2021-05-13_09h40.29.514,ranlexdec,2020.2.5,Win32,60
,,,,,,,,,,,,right,0.54936,0,117,117,189,1,konverzál,KT131,nő,1990,16,2021-05-13_09h40.29.514,ranlexdec,2020.2.5,Win32,60
,,,,,,,,,,,,left,2.220995,0,118,118,224,1,truccol,KT131,nő,1990,16,2021-05-13_09h40.29.514,ranlexdec,2020.2.5,Win32,60
,,,,,,,,,,,,left,1.22873,0,119,119,173,1,glosszáz,KT131,nő,1990,16,2021-05-13_09h40.29.514,ranlexdec,2020.2.5,Win32,60
,,,,,,,,,,,,left,1.017445,0,120,120,207,1,diffamál,KT131,nő,1990,16,2021-05-13_09h40.29.514,ranlexdec,2020.2.5,Win32,60
,,,,,,,,,,,,right,0.949835,0,121,121,13,1,törköly,KT131,nő,1990,16,2021-05-13_09h40.29.514,ranlexdec,2020.2.5,Win32,60
,,,,,,,,,,,,left,1.847,0,122,122,162,1,nimbus,KT131,nő,1990,16,2021-05-13_09h40.29.514,ranlexdec,2020.2.5,Win32,60
,,,,,,,,,,,,left,1.32876,0,123,123,109,1,vényegő,KT131,nő,1990,16,2021-05-13_09h40.29.514,ranlexdec,2020.2.5,Win32,60
,,,,,,,,,,,,right,0.679605,0,124,124,34,1,csengettyű,KT131,nő,1990,16,2021-05-13_09h40.29.514,ranlexdec,2020.2.5,Win32,60
,,,,,,,,,,,,right,0.918115,0,125,125,202,1,abszint,KT131,nő,1990,16,2021-05-13_09h40.29.514,ranlexdec,2020.2.5,Win32,60
,,,,,,,,,,,,right,1.064885,0,126,126,63,1,viszkózus,KT131,nő,1990,16,2021-05-13_09h40.29.514,ranlexdec,2020.2.5,Win32,60
,,,,,,,,,,,,left,0.89625,0,127,127,3,1,tömzsa,KT131,nő,1990,16,2021-05-13_09h40.29.514,ranlexdec,2020.2.5,Win32,60
,,,,,,,,,,,,right,0.698635,0,128,128,126,1,rejtőzik,KT131,nő,1990,16,2021-05-13_09h40.29.514,ranlexdec,2020.2.5,Win32,60
,,,,,,,,,,,,left,1.76184,0,129,129,37,1,lukaszt,KT131,nő,1990,16,2021-05-13_09h40.29.514,ranlexdec,2020.2.5,Win32,60
,,,,,,,,,,,,left,1.12541,0,130,130,127,1,rozintem,KT131,nő,1990,16,2021-05-13_09h40.29.514,ranlexdec,2020.2.5,Win32,60
,,,,,,,,,,,,right,0.69778,0,131,131,88,1,pohár,KT131,nő,1990,16,2021-05-13_09h40.29.514,ranlexdec,2020.2.5,Win32,60
,,,,,,,,,,,,right,0.75323,0,132,132,21,1,heveny,KT131,nő,1990,16,2021-05-13_09h40.29.514,ranlexdec,2020.2.5,Win32,60
,,,,,,,,,,,,right,0.683315,0,133,133,238,1,bolgár,KT131,nő,1990,16,2021-05-13_09h40.29.514,ranlexdec,2020.2.5,Win32,60
,,,,,,,,,,,,left,1.343735,0,134,134,198,1,lublika,KT131,nő,1990,16,2021-05-13_09h40.29.514,ranlexdec,2020.2.5,Win32,60
,,,,,,,,,,,,right,0.856075,0,135,135,177,1,pereg,KT131,nő,1990,16,2021-05-13_09h40.29.514,ranlexdec,2020.2.5,Win32,60
,,,,,,,,,,,,right,0.845955,0,136,136,33,1,kalcium,KT131,nő,1990,16,2021-05-13_09h40.29.514,ranlexdec,2020.2.5,Win32,60
,,,,,,,,,,,,left,0.87628,0,137,137,47,1,döföl,KT131,nő,1990,16,2021-05-13_09h40.29.514,ranlexdec,2020.2.5,Win32,60
,,,,,,,,,,,,left,1.130795,0,138,138,192,1,norvend,KT131,nő,1990,16,2021-05-13_09h40.29.514,ranlexdec,2020.2.5,Win32,60
,,,,,,,,,,,,left,1.39533,0,139,139,108,1,konyrúd,KT131,nő,1990,16,2021-05-13_09h40.29.514,ranlexdec,2020.2.5,Win32,60
,,,,,,,,,,,,right,0.77925,0,140,140,130,1,derít,KT131,nő,1990,16,2021-05-13_09h40.29.514,ranlexdec,2020.2.5,Win32,60
,,,,,,,,,,,,right,1.4773,0,141,141,210,1,karakter,KT131,nő,1990,16,2021-05-13_09h40.29.514,ranlexdec,2020.2.5,Win32,60
,,,,,,,,,,,,right,1.7103,0,142,142,14,1,selypít,KT131,nő,1990,16,2021-05-13_09h40.29.514,ranlexdec,2020.2.5,Win32,60
,,,,,,,,,,,,left,0.912655,0,143,143,40,1,diviz,KT131,nő,1990,16,2021-05-13_09h40.29.514,ranlexdec,2020.2.5,Win32,60
,,,,,,,,,,,,right,0.68182,0,144,144,86,1,jármű,KT131,nő,1990,16,2021-05-13_09h40.29.514,ranlexdec,2020.2.5,Win32,60
,,,,,,,,,,,,right,1.19449,0,145,145,157,1,káder,KT131,nő,1990,16,2021-05-13_09h40.29.514,ranlexdec,2020.2.5,Win32,60
,,,,,,,,,,,,right,0.83489,0,146,146,8,1,kulcscsont,KT131,nő,1990,16,2021-05-13_09h40.29.514,ranlexdec,2020.2.5,Win32,60
,,,,,,,,,,,,right,1.06374,0,147,147,122,1,égitest,KT131,nő,1990,16,2021-05-13_09h40.29.514,ranlexdec,2020.2.5,Win32,60
,,,,,,,,,,,,right,2.659705,0,148,148,128,1,csüggedez,KT131,nő,1990,16,2021-05-13_09h40.29.514,ranlexdec,2020.2.5,Win32,60
,,,,,,,,,,,,left,1.47752,0,149,149,106,1,lalláz,KT131,nő,1990,16,2021-05-13_09h40.29.514,ranlexdec,2020.2.5,Win32,60
,,,,,,,,,,,,right,0.76663,0,150,150,53,1,puritán,KT131,nő,1990,16,2021-05-13_09h40.29.514,ranlexdec,2020.2.5,Win32,60
,,,,,,,,,,,,right,0.71266,0,151,151,89,1,szokik,KT131,nő,1990,16,2021-05-13_09h40.29.514,ranlexdec,2020.2.5,Win32,60
,,,,,,,,,,,,right,0.67928,0,152,152,10,1,nárcisz,KT131,nő,1990,16,2021-05-13_09h40.29.514,ranlexdec,2020.2.5,Win32,60
,,,,,,,,,,,,left,0.85023,0,153,153,191,1,hitódó,KT131,nő,1990,16,2021-05-13_09h40.29.514,ranlexdec,2020.2.5,Win32,60
,,,,,,,,,,,,left,1.853335,0,154,154,91,1,tajtásos,KT131,nő,1990,16,2021-05-13_09h40.29.514,ranlexdec,2020.2.5,Win32,60
,,,,,,,,,,,,right,2.363665,0,155,155,96,1,alfél,KT131,nő,1990,16,2021-05-13_09h40.29.514,ranlexdec,2020.2.5,Win32,60
,,,,,,,,,,,,right,1.094865,0,156,156,68,1,kitin,KT131,nő,1990,16,2021-05-13_09h40.29.514,ranlexdec,2020.2.5,Win32,60
,,,,,,,,,,,,right,0.69557,0,157,157,54,1,fürkész,KT131,nő,1990,16,2021-05-13_09h40.29.514,ranlexdec,2020.2.5,Win32,60
,,,,,,,,,,,,right,0.605865,0,158,158,246,1,beton,KT131,nő,1990,16,2021-05-13_09h40.29.514,ranlexdec,2020.2.5,Win32,60
,,,,,,,,,,,,left,1.29857,0,159,159,216,1,svábtök,KT131,nő,1990,16,2021-05-13_09h40.29.514,ranlexdec,2020.2.5,Win32,60
,,,,,,,,,,,,right,0.729885,0,160,160,113,1,piktogram,KT131,nő,1990,16,2021-05-13_09h40.29.514,ranlexdec,2020.2.5,Win32,60
,,,,,,,,,,,,right,0.73048,0,161,161,215,1,neoprén,KT131,nő,1990,16,2021-05-13_09h40.29.514,ranlexdec,2020.2.5,Win32,60
,,,,,,,,,,,,right,0.892305,0,162,162,228,1,tarol,KT131,nő,1990,16,2021-05-13_09h40.29.514,ranlexdec,2020.2.5,Win32,60
,,,,,,,,,,,,right,0.52997,0,163,163,169,1,komoly,KT131,nő,1990,16,2021-05-13_09h40.29.514,ranlexdec,2020.2.5,Win32,60
,,,,,,,,,,,,left,1.542965,0,164,164,50,1,csenyei,KT131,nő,1990,16,2021-05-13_09h40.29.514,ranlexdec,2020.2.5,Win32,60
,,,,,,,,,,,,left,0.983485,0,165,165,155,1,megpadék,KT131,nő,1990,16,2021-05-13_09h40.29.514,ranlexdec,2020.2.5,Win32,60
,,,,,,,,,,,,right,0.651495,0,166,166,110,1,időszak,KT131,nő,1990,16,2021-05-13_09h40.29.514,ranlexdec,2020.2.5,Win32,60
,,,,,,,,,,,,left,0.85002,0,167,167,167,1,vabank,KT131,nő,1990,16,2021-05-13_09h40.29.514,ranlexdec,2020.2.5,Win32,60
,,,,,,,,,,,,right,0.81561,0,168,168,143,1,rojtoz,KT131,nő,1990,16,2021-05-13_09h40.29.514,ranlexdec,2020.2.5,Win32,60
,,,,,,,,,,,,right,0.95878,0,169,169,145,1,kurtít,KT131,nő,1990,16,2021-05-13_09h40.29.514,ranlexdec,2020.2.5,Win32,60
,,,,,,,,,,,,left,1.16344,0,170,170,139,1,vároló,KT131,nő,1990,16,2021-05-13_09h40.29.514,ranlexdec,2020.2.5,Win32,60
,,,,,,,,,,,,left,0.743615,0,171,171,42,1,összalaj,KT131,nő,1990,16,2021-05-13_09h40.29.514,ranlexdec,2020.2.5,Win32,60
,,,,,,,,,,,,left,1.893285,0,172,172,119,1,cugehőr,KT131,nő,1990,16,2021-05-13_09h40.29.514,ranlexdec,2020.2.5,Win32,60
,,,,,,,,,,,,left,1.88298,0,173,173,18,1,csapattest,KT131,nő,1990,16,2021-05-13_09h40.29.514,ranlexdec,2020.2.5,Win32,60
,,,,,,,,,,,,left,0.78022,0,174,174,26,1,aurult,KT131,nő,1990,16,2021-05-13_09h40.29.514,ranlexdec,2020.2.5,Win32,60
,,,,,,,,,,,,left,1.196525,0,175,175,181,1,dohorpák,KT131,nő,1990,16,2021-05-13_09h40.29.514,ranlexdec,2020.2.5,Win32,60
,,,,,,,,,,,,left,0.85348,0,176,176,30,1,dádá,KT131,nő,1990,16,2021-05-13_09h40.29.514,ranlexdec,2020.2.5,Win32,60
,,,,,,,,,,,,right,1.522345,0,177,177,69,1,gerencsér,KT131,nő,1990,16,2021-05-13_09h40.29.514,ranlexdec,2020.2.5,Win32,60
,,,,,,,,,,,,right,1.451225,0,178,178,163,1,kollapszus,KT131,nő,1990,16,2021-05-13_09h40.29.514,ranlexdec,2020.2.5,Win32,60
,,,,,,,,,,,,left,0.79786,0,179,179,49,1,ernyak,KT131,nő,1990,16,2021-05-13_09h40.29.514,ranlexdec,2020.2.5,Win32,60
,,,,,,,,,,,,left,0.88251,0,180,180,117,1,ószeven,KT131,nő,1990,16,2021-05-13_09h40.29.514,ranlexdec,2020.2.5,Win32,60
,,,,,,,,,,,,right,0.644865,0,181,181,213,1,eszköz,KT131,nő,1990,16,2021-05-13_09h40.29.514,ranlexdec,2020.2.5,Win32,60
,,,,,,,,,,,,left,0.99691,0,182,182,195,1,petél,KT131,nő,1990,16,2021-05-13_09h40.29.514,ranlexdec,2020.2.5,Win32,60
,,,,,,,,,,,,right,1.401305,0,183,183,206,1,horizont,KT131,nő,1990,16,2021-05-13_09h40.29.514,ranlexdec,2020.2.5,Win32,60
,,,,,,,,,,,,right,0.65899,0,184,184,247,1,ausztrál,KT131,nő,1990,16,2021-05-13_09h40.29.514,ranlexdec,2020.2.5,Win32,60
,,,,,,,,,,,,left,0.830505,0,185,185,219,1,szimboló,KT131,nő,1990,16,2021-05-13_09h40.29.514,ranlexdec,2020.2.5,Win32,60
,,,,,,,,,,,,right,2.07731,0,186,186,146,1,kondenzcsík,KT131,nő,1990,16,2021-05-13_09h40.29.514,ranlexdec,2020.2.5,Win32,60
,,,,,,,,,,,,left,1.223035,0,187,187,82,1,kvéker,KT131,nő,1990,16,2021-05-13_09h40.29.514,ranlexdec,2020.2.5,Win32,60
,,,,,,,,,,,,left,1.10255,0,188,188,205,1,mimézis,KT131,nő,1990,16,2021-05-13_09h40.29.514,ranlexdec,2020.2.5,Win32,60
,,,,,,,,,,,,right,0.728625,0,189,189,92,1,lágyék,KT131,nő,1990,16,2021-05-13_09h40.29.514,ranlexdec,2020.2.5,Win32,60
,,,,,,,,,,,,right,0.662875,0,190,190,48,1,reagál,KT131,nő,1990,16,2021-05-13_09h40.29.514,ranlexdec,2020.2.5,Win32,60
,,,,,,,,,,,,left,0.945935,0,191,191,217,1,ifjít,KT131,nő,1990,16,2021-05-13_09h40.29.514,ranlexdec,2020.2.5,Win32,60
,,,,,,,,,,,,left,0.92435,0,192,192,52,1,kunyai,KT131,nő,1990,16,2021-05-13_09h40.29.514,ranlexdec,2020.2.5,Win32,60
,,,,,,,,,,,,left,1.594545,0,193,193,15,1,pauzál,KT131,nő,1990,16,2021-05-13_09h40.29.514,ranlexdec,2020.2.5,Win32,60
,,,,,,,,,,,,right,0.6174,0,194,194,90,1,orális,KT131,nő,1990,16,2021-05-13_09h40.29.514,ranlexdec,2020.2.5,Win32,60
,,,,,,,,,,,,right,0.84544,0,195,195,111,1,koenzim,KT131,nő,1990,16,2021-05-13_09h40.29.514,ranlexdec,2020.2.5,Win32,60
,,,,,,,,,,,,left,1.545255,0,196,196,166,1,retálhit,KT131,nő,1990,16,2021-05-13_09h40.29.514,ranlexdec,2020.2.5,Win32,60
,,,,,,,,,,,,right,0.796285,0,197,197,160,1,százalék,KT131,nő,1990,16,2021-05-13_09h40.29.514,ranlexdec,2020.2.5,Win32,60
,,,,,,,,,,,,left,0.817755,0,198,198,71,1,extuál,KT131,nő,1990,16,2021-05-13_09h40.29.514,ranlexdec,2020.2.5,Win32,60
,,,,,,,,,,,,right,0.68137,0,199,199,245,1,ellenfél,KT131,nő,1990,16,2021-05-13_09h40.29.514,ranlexdec,2020.2.5,Win32,60
,,,,,,,,,,,,right,0.883445,0,200,200,172,1,kettősfém,KT131,nő,1990,16,2021-05-13_09h40.29.514,ranlexdec,2020.2.5,Win32,60
,,,,,,,,,,,,right,0.94685,0,201,201,234,1,fertilis,KT131,nő,1990,16,2021-05-13_09h40.29.514,ranlexdec,2020.2.5,Win32,60
,,,,,,,,,,,,left,1.37879,0,202,202,137,1,aragas,KT131,nő,1990,16,2021-05-13_09h40.29.514,ranlexdec,2020.2.5,Win32,60
,,,,,,,,,,,,right,0.715625,0,203,203,200,1,biliárd,KT131,nő,1990,16,2021-05-13_09h40.29.514,ranlexdec,2020.2.5,Win32,60
,,,,,,,,,,,,left,2.461445,0,204,204,133,1,hübrisz,KT131,nő,1990,16,2021-05-13_09h40.29.514,ranlexdec,2020.2.5,Win32,60
,,,,,,,,,,,,right,0.525975,0,205,205,214,1,tenger,KT131,nő,1990,16,2021-05-13_09h40.29.514,ranlexdec,2020.2.5,Win32,60
,,,,,,,,,,,,left,0.980285,0,206,206,97,1,vésségi,KT131,nő,1990,16,2021-05-13_09h40.29.514,ranlexdec,2020.2.5,Win32,60
,,,,,,,,,,,,right,0.68208,0,207,207,179,1,töredék,KT131,nő,1990,16,2021-05-13_09h40.29.514,ranlexdec,2020.2.5,Win32,60
,,,,,,,,,,,,right,0.722755,0,208,208,159,1,elegy,KT131,nő,1990,16,2021-05-13_09h40.29.514,ranlexdec,2020.2.5,Win32,60
,,,,,,,,,,,,right,0.65093,0,209,209,9,1,hajlik,KT131,nő,1990,16,2021-05-13_09h40.29.514,ranlexdec,2020.2.5,Win32,60
,,,,,,,,,,,,right,0.68897,0,210,210,151,1,komplex,KT131,nő,1990,16,2021-05-13_09h40.29.514,ranlexdec,2020.2.5,Win32,60
,,,,,,,,,,,,right,0.82936,0,211,211,165,1,lépték,KT131,nő,1990,16,2021-05-13_09h40.29.514,ranlexdec,2020.2.5,Win32,60
,,,,,,,,,,,,right,1.912835,0,212,212,120,1,komál,KT131,nő,1990,16,2021-05-13_09h40.29.514,ranlexdec,2020.2.5,Win32,60
,,,,,,,,,,,,right,1.19793,0,213,213,116,1,árus,KT131,nő,1990,16,2021-05-13_09h40.29.514,ranlexdec,2020.2.5,Win32,60
,,,,,,,,,,,,right,0.610405,0,214,214,171,1,újgazdag,KT131,nő,1990,16,2021-05-13_09h40.29.514,ranlexdec,2020.2.5,Win32,60
,,,,,,,,,,,,left,0.998505,0,215,215,240,1,áradmány,KT131,nő,1990,16,2021-05-13_09h40.29.514,ranlexdec,2020.2.5,Win32,60
,,,,,,,,,,,,right,1.5777,0,216,216,235,1,transzplantál,KT131,nő,1990,16,2021-05-13_09h40.29.514,ranlexdec,2020.2.5,Win32,60
,,,,,,,,,,,,right,1.1314,0,217,217,11,1,viszkóz,KT131,nő,1990,16,2021-05-13_09h40.29.514,ranlexdec,2020.2.5,Win32,60
,,,,,,,,,,,,left,1.034035,0,218,218,186,1,piláf,KT131,nő,1990,16,2021-05-13_09h40.29.514,ranlexdec,2020.2.5,Win32,60
,,,,,,,,,,,,right,0.80142,0,219,219,67,1,szegény,KT131,nő,1990,16,2021-05-13_09h40.29.514,ranlexdec,2020.2.5,Win32,60
,,,,,,,,,,,,right,0.663495,0,220,220,114,1,tartalom,KT131,nő,1990,16,2021-05-13_09h40.29.514,ranlexdec,2020.2.5,Win32,60
,,,,,,,,,,,,left,0.858885,0,221,221,218,1,tortya,KT131,nő,1990,16,2021-05-13_09h40.29.514,ranlexdec,2020.2.5,Win32,60
,,,,,,,,,,,,right,0.587595,0,222,222,80,1,darab,KT131,nő,1990,16,2021-05-13_09h40.29.514,ranlexdec,2020.2.5,Win32,60
,,,,,,,,,,,,right,0.554715,0,223,223,73,1,olaj,KT131,nő,1990,16,2021-05-13_09h40.29.514,ranlexdec,2020.2.5,Win32,60
,,,,,,,,,,,,right,0.612935,0,224,224,227,1,kötődik,KT131,nő,1990,16,2021-05-13_09h40.29.514,ranlexdec,2020.2.5,Win32,60
,,,,,,,,,,,,right,0.531335,0,225,225,231,1,igény,KT131,nő,1990,16,2021-05-13_09h40.29.514,ranlexdec,2020.2.5,Win32,60
,,,,,,,,,,,,right,0.612625,0,226,226,161,1,példakép,KT131,nő,1990,16,2021-05-13_09h40.29.514,ranlexdec,2020.2.5,Win32,60
,,,,,,,,,,,,right,0.49712,0,227,227,20,1,század,KT131,nő,1990,16,2021-05-13_09h40.29.514,ranlexdec,2020.2.5,Win32,60
,,,,,,,,,,,,left,0.800245,0,228,228,204,1,kocskesi,KT131,nő,1990,16,2021-05-13_09h40.29.514,ranlexdec,2020.2.5,Win32,60
,,,,,,,,,,,,left,0.986985,0,229,229,72,1,mihálóz,KT131,nő,1990,16,2021-05-13_09h40.29.514,ranlexdec,2020.2.5,Win32,60
,,,,,,,,,,,,left,0.826005,0,230,230,112,1,méhezter,KT131,nő,1990,16,2021-05-13_09h40.29.514,ranlexdec,2020.2.5,Win32,60
,,,,,,,,,,,,right,1.20259,0,231,231,41,1,nagybeteg,KT131,nő,1990,16,2021-05-13_09h40.29.514,ranlexdec,2020.2.5,Win32,60
,,,,,,,,,,,,left,1.49832,0,232,232,229,1,lemesség,KT131,nő,1990,16,2021-05-13_09h40.29.514,ranlexdec,2020.2.5,Win32,60
,,,,,,,,,,,,left,0.730585,0,233,233,16,1,cséltás,KT131,nő,1990,16,2021-05-13_09h40.29.514,ranlexdec,2020.2.5,Win32,60
,,,,,,,,,,,,left,0.567485,0,234,234,83,1,vonzum,KT131,nő,1990,16,2021-05-13_09h40.29.514,ranlexdec,2020.2.5,Win32,60
,,,,,,,,,,,,right,0.657375,0,235,235,105,1,tököl,KT131,nő,1990,16,2021-05-13_09h40.29.514,ranlexdec,2020.2.5,Win32,60
,,,,,,,,,,,,right,0.832425,0,236,236,156,1,lazúroz,KT131,nő,1990,16,2021-05-13_09h40.29.514,ranlexdec,2020.2.5,Win32,60
,,,,,,,,,,,,left,3.55914,0,237,237,197,1,krakéler,KT131,nő,1990,16,2021-05-13_09h40.29.514,ranlexdec,2020.2.5,Win32,60
,,,,,,,,,,,,left,3.040395,0,238,238,209,1,hidegház,KT131,nő,1990,16,2021-05-13_09h40.29.514,ranlexdec,2020.2.5,Win32,60
,,,,,,,,,,,,right,0.764515,0,239,239,158,1,hidroxid,KT131,nő,1990,16,2021-05-13_09h40.29.514,ranlexdec,2020.2.5,Win32,60
,,,,,,,,,,,,right,1.12821,0,240,240,39,1,könnyelmű,KT131,nő,1990,16,2021-05-13_09h40.29.514,ranlexdec,2020.2.5,Win32,60
,,,,,,,,,,,,left,1.29244,0,241,241,242,1,rekvizit,KT131,nő,1990,16,2021-05-13_09h40.29.514,ranlexdec,2020.2.5,Win32,60
,,,,,,,,,,,,left,0.67065,0,242,242,36,1,tröshet,KT131,nő,1990,16,2021-05-13_09h40.29.514,ranlexdec,2020.2.5,Win32,60
,,,,,,,,,,,,left,0.651525,0,243,243,134,1,móringol,KT131,nő,1990,16,2021-05-13_09h40.29.514,ranlexdec,2020.2.5,Win32,60
,,,,,,,,,,,,right,0.58027,0,244,244,79,1,extrém,KT131,nő,1990,16,2021-05-13_09h40.29.514,ranlexdec,2020.2.5,Win32,60
,,,,,,,,,,,,right,0.61236,0,245,245,43,1,közhely,KT131,nő,1990,16,2021-05-13_09h40.29.514,ranlexdec,2020.2.5,Win32,60
,,,,,,,,,,,,left,1.445385,0,246,246,131,1,vetézmés,KT131,nő,1990,16,2021-05-13_09h40.29.514,ranlexdec,2020.2.5,Win32,60
,,,,,,,,,,,,left,0.916535,0,247,247,29,1,novagár,KT131,nő,1990,16,2021-05-13_09h40.29.514,ranlexdec,2020.2.5,Win32,60
,,,,,,,,,,,,right,1.044665,0,248,248,199,1,ború,KT131,nő,1990,16,2021-05-13_09h40.29.514,ranlexdec,2020.2.5,Win32,60
,,,,,,,,,,,,right,1.01809,0,249,249,115,1,fajansz,KT131,nő,1990,16,2021-05-13_09h40.29.514,ranlexdec,2020.2.5,Win32,60
