ready2_2.keys,ready2_2.rt,ready2.keys,ready2.rt,key_resp.keys,key_resp.rt,key_resp_3.keys,key_resp_3.rt,key_resp_2.keys,key_resp_2.rt,ready3.keys,ready3.rt,resp.keys,resp.rt,withinBlock.thisRepN,withinBlock.thisTrialN,withinBlock.thisN,withinBlock.thisIndex,withinBlock.ran,word,Azonosító,Az Ön neme,Születési éve,Hány évet töltött az iskolapadban (egyetemet is beleértve),date,expName,psychopyVersion,OS,frameRate
return,44.35764,return,38.575305,right,19.73334,left,2.827755,left,6.90543,return,24.949435,right,1.166785,0,0,0,185,1,gyülemlik,WCDKR0,NŐ,1977.03.07,17,2021-05-14_14h25.06.554,ranlexdec,2020.2.5,Win32,60
,,,,,,,,,,,,right,0.61665,0,1,1,231,1,igény,WCDKR0,NŐ,1977.03.07,17,2021-05-14_14h25.06.554,ranlexdec,2020.2.5,Win32,60
,,,,,,,,,,,,right,0.933825,0,2,2,184,1,profit,WCDKR0,NŐ,1977.03.07,17,2021-05-14_14h25.06.554,ranlexdec,2020.2.5,Win32,60
,,,,,,,,,,,,left,2.2903,0,3,3,66,1,parkkói,WCDKR0,NŐ,1977.03.07,17,2021-05-14_14h25.06.554,ranlexdec,2020.2.5,Win32,60
,,,,,,,,,,,,right,1.19583,0,4,4,215,1,neoprén,WCDKR0,NŐ,1977.03.07,17,2021-05-14_14h25.06.554,ranlexdec,2020.2.5,Win32,60
,,,,,,,,,,,,left,1.75527,0,5,5,167,1,vabank,WCDKR0,NŐ,1977.03.07,17,2021-05-14_14h25.06.554,ranlexdec,2020.2.5,Win32,60
,,,,,,,,,,,,right,0.642545,0,6,6,188,1,sugár,WCDKR0,NŐ,1977.03.07,17,2021-05-14_14h25.06.554,ranlexdec,2020.2.5,Win32,60
,,,,,,,,,,,,right,0.66056,0,7,7,248,1,örmény,WCDKR0,NŐ,1977.03.07,17,2021-05-14_14h25.06.554,ranlexdec,2020.2.5,Win32,60
,,,,,,,,,,,,left,1.46751,0,8,8,29,1,novagár,WCDKR0,NŐ,1977.03.07,17,2021-05-14_14h25.06.554,ranlexdec,2020.2.5,Win32,60
,,,,,,,,,,,,right,0.97644,0,9,9,120,1,komál,WCDKR0,NŐ,1977.03.07,17,2021-05-14_14h25.06.554,ranlexdec,2020.2.5,Win32,60
,,,,,,,,,,,,right,0.840245,0,10,10,48,1,reagál,WCDKR0,NŐ,1977.03.07,17,2021-05-14_14h25.06.554,ranlexdec,2020.2.5,Win32,60
,,,,,,,,,,,,right,1.220645,0,11,11,94,1,rotor,WCDKR0,NŐ,1977.03.07,17,2021-05-14_14h25.06.554,ranlexdec,2020.2.5,Win32,60
,,,,,,,,,,,,right,4.69734,0,12,12,240,1,áradmány,WCDKR0,NŐ,1977.03.07,17,2021-05-14_14h25.06.554,ranlexdec,2020.2.5,Win32,60
,,,,,,,,,,,,right,0.7566,0,13,13,170,1,változik,WCDKR0,NŐ,1977.03.07,17,2021-05-14_14h25.06.554,ranlexdec,2020.2.5,Win32,60
,,,,,,,,,,,,right,0.795915,0,14,14,68,1,kitin,WCDKR0,NŐ,1977.03.07,17,2021-05-14_14h25.06.554,ranlexdec,2020.2.5,Win32,60
,,,,,,,,,,,,right,2.803175,0,15,15,233,1,templomoz,WCDKR0,NŐ,1977.03.07,17,2021-05-14_14h25.06.554,ranlexdec,2020.2.5,Win32,60
,,,,,,,,,,,,right,0.573705,0,16,16,21,1,heveny,WCDKR0,NŐ,1977.03.07,17,2021-05-14_14h25.06.554,ranlexdec,2020.2.5,Win32,60
,,,,,,,,,,,,right,0.929725,0,17,17,241,1,kárpit,WCDKR0,NŐ,1977.03.07,17,2021-05-14_14h25.06.554,ranlexdec,2020.2.5,Win32,60
,,,,,,,,,,,,right,1.595675,0,18,18,47,1,döföl,WCDKR0,NŐ,1977.03.07,17,2021-05-14_14h25.06.554,ranlexdec,2020.2.5,Win32,60
,,,,,,,,,,,,right,0.69879,0,19,19,33,1,kalcium,WCDKR0,NŐ,1977.03.07,17,2021-05-14_14h25.06.554,ranlexdec,2020.2.5,Win32,60
,,,,,,,,,,,,left,3.56739,0,20,20,72,1,mihálóz,WCDKR0,NŐ,1977.03.07,17,2021-05-14_14h25.06.554,ranlexdec,2020.2.5,Win32,60
,,,,,,,,,,,,right,1.01659,0,21,21,63,1,viszkózus,WCDKR0,NŐ,1977.03.07,17,2021-05-14_14h25.06.554,ranlexdec,2020.2.5,Win32,60
,,,,,,,,,,,,right,0.821465,0,22,22,0,1,irány,WCDKR0,NŐ,1977.03.07,17,2021-05-14_14h25.06.554,ranlexdec,2020.2.5,Win32,60
,,,,,,,,,,,,right,0.858195,0,23,23,11,1,viszkóz,WCDKR0,NŐ,1977.03.07,17,2021-05-14_14h25.06.554,ranlexdec,2020.2.5,Win32,60
,,,,,,,,,,,,right,1.38319,0,24,24,44,1,ingváll,WCDKR0,NŐ,1977.03.07,17,2021-05-14_14h25.06.554,ranlexdec,2020.2.5,Win32,60
,,,,,,,,,,,,left,1.63535,0,25,25,49,1,ernyak,WCDKR0,NŐ,1977.03.07,17,2021-05-14_14h25.06.554,ranlexdec,2020.2.5,Win32,60
,,,,,,,,,,,,right,1.7146,0,26,26,242,1,rekvizit,WCDKR0,NŐ,1977.03.07,17,2021-05-14_14h25.06.554,ranlexdec,2020.2.5,Win32,60
,,,,,,,,,,,,right,0.777585,0,27,27,247,1,ausztrál,WCDKR0,NŐ,1977.03.07,17,2021-05-14_14h25.06.554,ranlexdec,2020.2.5,Win32,60
,,,,,,,,,,,,right,1.12052,0,28,28,22,1,arzénsav,WCDKR0,NŐ,1977.03.07,17,2021-05-14_14h25.06.554,ranlexdec,2020.2.5,Win32,60
,,,,,,,,,,,,right,1.192285,0,29,29,27,1,sporthorgász,WCDKR0,NŐ,1977.03.07,17,2021-05-14_14h25.06.554,ranlexdec,2020.2.5,Win32,60
,,,,,,,,,,,,left,2.24835,0,30,30,137,1,aragas,WCDKR0,NŐ,1977.03.07,17,2021-05-14_14h25.06.554,ranlexdec,2020.2.5,Win32,60
,,,,,,,,,,,,right,0.753065,0,31,31,187,1,testnedv,WCDKR0,NŐ,1977.03.07,17,2021-05-14_14h25.06.554,ranlexdec,2020.2.5,Win32,60
,,,,,,,,,,,,right,0.93672,0,32,32,138,1,gyűjtemény,WCDKR0,NŐ,1977.03.07,17,2021-05-14_14h25.06.554,ranlexdec,2020.2.5,Win32,60
,,,,,,,,,,,,right,0.69375,0,33,33,85,1,glükóz,WCDKR0,NŐ,1977.03.07,17,2021-05-14_14h25.06.554,ranlexdec,2020.2.5,Win32,60
,,,,,,,,,,,,right,1.634395,0,34,34,121,1,aggófű,WCDKR0,NŐ,1977.03.07,17,2021-05-14_14h25.06.554,ranlexdec,2020.2.5,Win32,60
,,,,,,,,,,,,left,2.497525,0,35,35,218,1,tortya,WCDKR0,NŐ,1977.03.07,17,2021-05-14_14h25.06.554,ranlexdec,2020.2.5,Win32,60
,,,,,,,,,,,,right,0.933975,0,36,36,232,1,tropikus,WCDKR0,NŐ,1977.03.07,17,2021-05-14_14h25.06.554,ranlexdec,2020.2.5,Win32,60
,,,,,,,,,,,,right,1.11407,0,37,37,210,1,karakter,WCDKR0,NŐ,1977.03.07,17,2021-05-14_14h25.06.554,ranlexdec,2020.2.5,Win32,60
,,,,,,,,,,,,right,0.80954,0,38,38,41,1,nagybeteg,WCDKR0,NŐ,1977.03.07,17,2021-05-14_14h25.06.554,ranlexdec,2020.2.5,Win32,60
,,,,,,,,,,,,right,0.643695,0,39,39,168,1,grafikon,WCDKR0,NŐ,1977.03.07,17,2021-05-14_14h25.06.554,ranlexdec,2020.2.5,Win32,60
,,,,,,,,,,,,right,0.62976,0,40,40,169,1,komoly,WCDKR0,NŐ,1977.03.07,17,2021-05-14_14h25.06.554,ranlexdec,2020.2.5,Win32,60
,,,,,,,,,,,,right,3.917175,0,41,41,42,1,összalaj,WCDKR0,NŐ,1977.03.07,17,2021-05-14_14h25.06.554,ranlexdec,2020.2.5,Win32,60
,,,,,,,,,,,,right,2.10804,0,42,42,4,1,viszonvád,WCDKR0,NŐ,1977.03.07,17,2021-05-14_14h25.06.554,ranlexdec,2020.2.5,Win32,60
,,,,,,,,,,,,right,0.562395,0,43,43,116,1,árus,WCDKR0,NŐ,1977.03.07,17,2021-05-14_14h25.06.554,ranlexdec,2020.2.5,Win32,60
,,,,,,,,,,,,right,1.204695,0,44,44,62,1,bizmut,WCDKR0,NŐ,1977.03.07,17,2021-05-14_14h25.06.554,ranlexdec,2020.2.5,Win32,60
,,,,,,,,,,,,left,2.32097,0,45,45,102,1,pentez,WCDKR0,NŐ,1977.03.07,17,2021-05-14_14h25.06.554,ranlexdec,2020.2.5,Win32,60
,,,,,,,,,,,,left,1.12788,0,46,46,203,1,abeti,WCDKR0,NŐ,1977.03.07,17,2021-05-14_14h25.06.554,ranlexdec,2020.2.5,Win32,60
,,,,,,,,,,,,right,0.729975,0,47,47,59,1,ómagyar,WCDKR0,NŐ,1977.03.07,17,2021-05-14_14h25.06.554,ranlexdec,2020.2.5,Win32,60
,,,,,,,,,,,,right,0.900365,0,48,48,147,1,referál,WCDKR0,NŐ,1977.03.07,17,2021-05-14_14h25.06.554,ranlexdec,2020.2.5,Win32,60
,,,,,,,,,,,,left,2.001065,0,49,49,24,1,kosi,WCDKR0,NŐ,1977.03.07,17,2021-05-14_14h25.06.554,ranlexdec,2020.2.5,Win32,60
,,,,,,,,,,,,right,0.80253,0,50,50,15,1,pauzál,WCDKR0,NŐ,1977.03.07,17,2021-05-14_14h25.06.554,ranlexdec,2020.2.5,Win32,60
,,,,,,,,,,,,right,0.796905,0,51,51,202,1,abszint,WCDKR0,NŐ,1977.03.07,17,2021-05-14_14h25.06.554,ranlexdec,2020.2.5,Win32,60
,,,,,,,,,,,,right,0.58034,0,52,52,61,1,régész,WCDKR0,NŐ,1977.03.07,17,2021-05-14_14h25.06.554,ranlexdec,2020.2.5,Win32,60
,,,,,,,,,,,,right,0.63311,0,53,53,90,1,orális,WCDKR0,NŐ,1977.03.07,17,2021-05-14_14h25.06.554,ranlexdec,2020.2.5,Win32,60
,,,,,,,,,,,,right,0.568555,0,54,54,10,1,nárcisz,WCDKR0,NŐ,1977.03.07,17,2021-05-14_14h25.06.554,ranlexdec,2020.2.5,Win32,60
,,,,,,,,,,,,right,0.634765,0,55,55,74,1,püffeszt,WCDKR0,NŐ,1977.03.07,17,2021-05-14_14h25.06.554,ranlexdec,2020.2.5,Win32,60
,,,,,,,,,,,,right,0.64252,0,56,56,12,1,gyapot,WCDKR0,NŐ,1977.03.07,17,2021-05-14_14h25.06.554,ranlexdec,2020.2.5,Win32,60
,,,,,,,,,,,,left,1.268415,0,57,57,119,1,cugehőr,WCDKR0,NŐ,1977.03.07,17,2021-05-14_14h25.06.554,ranlexdec,2020.2.5,Win32,60
,,,,,,,,,,,,left,4.1317,0,58,58,181,1,dohorpák,WCDKR0,NŐ,1977.03.07,17,2021-05-14_14h25.06.554,ranlexdec,2020.2.5,Win32,60
,,,,,,,,,,,,right,1.156645,0,59,59,223,1,árstop,WCDKR0,NŐ,1977.03.07,17,2021-05-14_14h25.06.554,ranlexdec,2020.2.5,Win32,60
,,,,,,,,,,,,left,2.734715,0,60,60,131,1,vetézmés,WCDKR0,NŐ,1977.03.07,17,2021-05-14_14h25.06.554,ranlexdec,2020.2.5,Win32,60
,,,,,,,,,,,,right,0.98368,0,61,61,30,1,dádá,WCDKR0,NŐ,1977.03.07,17,2021-05-14_14h25.06.554,ranlexdec,2020.2.5,Win32,60
,,,,,,,,,,,,right,0.693835,0,62,62,9,1,hajlik,WCDKR0,NŐ,1977.03.07,17,2021-05-14_14h25.06.554,ranlexdec,2020.2.5,Win32,60
,,,,,,,,,,,,left,2.793425,0,63,63,117,1,ószeven,WCDKR0,NŐ,1977.03.07,17,2021-05-14_14h25.06.554,ranlexdec,2020.2.5,Win32,60
,,,,,,,,,,,,left,2.94415,0,64,64,133,1,hübrisz,WCDKR0,NŐ,1977.03.07,17,2021-05-14_14h25.06.554,ranlexdec,2020.2.5,Win32,60
,,,,,,,,,,,,right,0.65391,0,65,65,230,1,délceg,WCDKR0,NŐ,1977.03.07,17,2021-05-14_14h25.06.554,ranlexdec,2020.2.5,Win32,60
,,,,,,,,,,,,right,0.707105,0,66,66,6,1,csüggeszt,WCDKR0,NŐ,1977.03.07,17,2021-05-14_14h25.06.554,ranlexdec,2020.2.5,Win32,60
,,,,,,,,,,,,right,0.557515,0,67,67,7,1,űrlap,WCDKR0,NŐ,1977.03.07,17,2021-05-14_14h25.06.554,ranlexdec,2020.2.5,Win32,60
,,,,,,,,,,,,right,0.4138,0,68,68,144,1,rövid,WCDKR0,NŐ,1977.03.07,17,2021-05-14_14h25.06.554,ranlexdec,2020.2.5,Win32,60
,,,,,,,,,,,,right,0.71427,0,69,69,149,1,anorák,WCDKR0,NŐ,1977.03.07,17,2021-05-14_14h25.06.554,ranlexdec,2020.2.5,Win32,60
,,,,,,,,,,,,right,0.77768,0,70,70,13,1,törköly,WCDKR0,NŐ,1977.03.07,17,2021-05-14_14h25.06.554,ranlexdec,2020.2.5,Win32,60
,,,,,,,,,,,,left,4.006555,0,71,71,91,1,tajtásos,WCDKR0,NŐ,1977.03.07,17,2021-05-14_14h25.06.554,ranlexdec,2020.2.5,Win32,60
,,,,,,,,,,,,right,0.703265,0,72,72,20,1,század,WCDKR0,NŐ,1977.03.07,17,2021-05-14_14h25.06.554,ranlexdec,2020.2.5,Win32,60
,,,,,,,,,,,,right,0.763905,0,73,73,237,1,forgórész,WCDKR0,NŐ,1977.03.07,17,2021-05-14_14h25.06.554,ranlexdec,2020.2.5,Win32,60
,,,,,,,,,,,,right,8.502495,0,74,74,139,1,vároló,WCDKR0,NŐ,1977.03.07,17,2021-05-14_14h25.06.554,ranlexdec,2020.2.5,Win32,60
,,,,,,,,,,,,right,1.38374,0,75,75,95,1,skubizik,WCDKR0,NŐ,1977.03.07,17,2021-05-14_14h25.06.554,ranlexdec,2020.2.5,Win32,60
,,,,,,,,,,,,right,0.516385,0,76,76,104,1,dolog,WCDKR0,NŐ,1977.03.07,17,2021-05-14_14h25.06.554,ranlexdec,2020.2.5,Win32,60
,,,,,,,,,,,,right,1.05996,0,77,77,235,1,transzplantál,WCDKR0,NŐ,1977.03.07,17,2021-05-14_14h25.06.554,ranlexdec,2020.2.5,Win32,60
,,,,,,,,,,,,right,7.505175,0,78,78,70,1,lakotthely,WCDKR0,NŐ,1977.03.07,17,2021-05-14_14h25.06.554,ranlexdec,2020.2.5,Win32,60
,,,,,,,,,,,,right,1.54735,0,79,79,156,1,lazúroz,WCDKR0,NŐ,1977.03.07,17,2021-05-14_14h25.06.554,ranlexdec,2020.2.5,Win32,60
,,,,,,,,,,,,right,1.14729,0,80,80,161,1,példakép,WCDKR0,NŐ,1977.03.07,17,2021-05-14_14h25.06.554,ranlexdec,2020.2.5,Win32,60
,,,,,,,,,,,,right,1.02724,0,81,81,174,1,cianid,WCDKR0,NŐ,1977.03.07,17,2021-05-14_14h25.06.554,ranlexdec,2020.2.5,Win32,60
,,,,,,,,,,,,right,3.1614,0,82,82,153,1,kontrapunkt,WCDKR0,NŐ,1977.03.07,17,2021-05-14_14h25.06.554,ranlexdec,2020.2.5,Win32,60
,,,,,,,,,,,,right,3.188105,0,83,83,197,1,krakéler,WCDKR0,NŐ,1977.03.07,17,2021-05-14_14h25.06.554,ranlexdec,2020.2.5,Win32,60
,,,,,,,,,,,,right,2.407945,0,84,84,239,1,donhuán,WCDKR0,NŐ,1977.03.07,17,2021-05-14_14h25.06.554,ranlexdec,2020.2.5,Win32,60
,,,,,,,,,,,,right,0.889705,0,85,85,159,1,elegy,WCDKR0,NŐ,1977.03.07,17,2021-05-14_14h25.06.554,ranlexdec,2020.2.5,Win32,60
,,,,,,,,,,,,right,0.587945,0,86,86,200,1,biliárd,WCDKR0,NŐ,1977.03.07,17,2021-05-14_14h25.06.554,ranlexdec,2020.2.5,Win32,60
,,,,,,,,,,,,right,1.619335,0,87,87,173,1,glosszáz,WCDKR0,NŐ,1977.03.07,17,2021-05-14_14h25.06.554,ranlexdec,2020.2.5,Win32,60
,,,,,,,,,,,,left,2.85577,0,88,88,204,1,kocskesi,WCDKR0,NŐ,1977.03.07,17,2021-05-14_14h25.06.554,ranlexdec,2020.2.5,Win32,60
,,,,,,,,,,,,right,0.907405,0,89,89,199,1,ború,WCDKR0,NŐ,1977.03.07,17,2021-05-14_14h25.06.554,ranlexdec,2020.2.5,Win32,60
,,,,,,,,,,,,right,0.859105,0,90,90,113,1,piktogram,WCDKR0,NŐ,1977.03.07,17,2021-05-14_14h25.06.554,ranlexdec,2020.2.5,Win32,60
,,,,,,,,,,,,left,2.215775,0,91,91,141,1,hider,WCDKR0,NŐ,1977.03.07,17,2021-05-14_14h25.06.554,ranlexdec,2020.2.5,Win32,60
,,,,,,,,,,,,right,1.075895,0,92,92,189,1,konverzál,WCDKR0,NŐ,1977.03.07,17,2021-05-14_14h25.06.554,ranlexdec,2020.2.5,Win32,60
,,,,,,,,,,,,right,3.37952,0,93,93,50,1,csenyei,WCDKR0,NŐ,1977.03.07,17,2021-05-14_14h25.06.554,ranlexdec,2020.2.5,Win32,60
,,,,,,,,,,,,right,1.28058,0,94,94,209,1,hidegház,WCDKR0,NŐ,1977.03.07,17,2021-05-14_14h25.06.554,ranlexdec,2020.2.5,Win32,60
,,,,,,,,,,,,right,0.793095,0,95,95,89,1,szokik,WCDKR0,NŐ,1977.03.07,17,2021-05-14_14h25.06.554,ranlexdec,2020.2.5,Win32,60
,,,,,,,,,,,,right,1.064555,0,96,96,216,1,svábtök,WCDKR0,NŐ,1977.03.07,17,2021-05-14_14h25.06.554,ranlexdec,2020.2.5,Win32,60
,,,,,,,,,,,,right,1.01387,0,97,97,194,1,végbél,WCDKR0,NŐ,1977.03.07,17,2021-05-14_14h25.06.554,ranlexdec,2020.2.5,Win32,60
,,,,,,,,,,,,right,0.553695,0,98,98,79,1,extrém,WCDKR0,NŐ,1977.03.07,17,2021-05-14_14h25.06.554,ranlexdec,2020.2.5,Win32,60
,,,,,,,,,,,,right,0.69714,0,99,99,221,1,törődik,WCDKR0,NŐ,1977.03.07,17,2021-05-14_14h25.06.554,ranlexdec,2020.2.5,Win32,60
,,,,,,,,,,,,right,1.022335,0,100,100,196,1,dolgozik,WCDKR0,NŐ,1977.03.07,17,2021-05-14_14h25.06.554,ranlexdec,2020.2.5,Win32,60
,,,,,,,,,,,,right,5.02901,0,101,101,134,1,móringol,WCDKR0,NŐ,1977.03.07,17,2021-05-14_14h25.06.554,ranlexdec,2020.2.5,Win32,60
,,,,,,,,,,,,right,0.76862,0,102,102,206,1,horizont,WCDKR0,NŐ,1977.03.07,17,2021-05-14_14h25.06.554,ranlexdec,2020.2.5,Win32,60
,,,,,,,,,,,,left,7.22714,0,103,103,224,1,truccol,WCDKR0,NŐ,1977.03.07,17,2021-05-14_14h25.06.554,ranlexdec,2020.2.5,Win32,60
,,,,,,,,,,,,left,1.493935,0,104,104,46,1,kurzív,WCDKR0,NŐ,1977.03.07,17,2021-05-14_14h25.06.554,ranlexdec,2020.2.5,Win32,60
,,,,,,,,,,,,right,0.529505,0,105,105,73,1,olaj,WCDKR0,NŐ,1977.03.07,17,2021-05-14_14h25.06.554,ranlexdec,2020.2.5,Win32,60
,,,,,,,,,,,,right,0.667525,0,106,106,25,1,reform,WCDKR0,NŐ,1977.03.07,17,2021-05-14_14h25.06.554,ranlexdec,2020.2.5,Win32,60
,,,,,,,,,,,,right,1.059075,0,107,107,162,1,nimbus,WCDKR0,NŐ,1977.03.07,17,2021-05-14_14h25.06.554,ranlexdec,2020.2.5,Win32,60
,,,,,,,,,,,,right,0.46381,0,108,108,129,1,turné,WCDKR0,NŐ,1977.03.07,17,2021-05-14_14h25.06.554,ranlexdec,2020.2.5,Win32,60
,,,,,,,,,,,,right,1.276805,0,109,109,106,1,lalláz,WCDKR0,NŐ,1977.03.07,17,2021-05-14_14h25.06.554,ranlexdec,2020.2.5,Win32,60
,,,,,,,,,,,,right,1.053925,0,110,110,217,1,ifjít,WCDKR0,NŐ,1977.03.07,17,2021-05-14_14h25.06.554,ranlexdec,2020.2.5,Win32,60
,,,,,,,,,,,,right,1.24089,0,111,111,128,1,csüggedez,WCDKR0,NŐ,1977.03.07,17,2021-05-14_14h25.06.554,ranlexdec,2020.2.5,Win32,60
,,,,,,,,,,,,right,0.626735,0,112,112,28,1,gazdag,WCDKR0,NŐ,1977.03.07,17,2021-05-14_14h25.06.554,ranlexdec,2020.2.5,Win32,60
,,,,,,,,,,,,left,1.85019,0,113,113,198,1,lublika,WCDKR0,NŐ,1977.03.07,17,2021-05-14_14h25.06.554,ranlexdec,2020.2.5,Win32,60
,,,,,,,,,,,,left,4.148575,0,114,114,166,1,retálhit,WCDKR0,NŐ,1977.03.07,17,2021-05-14_14h25.06.554,ranlexdec,2020.2.5,Win32,60
,,,,,,,,,,,,right,0.53826,0,115,115,227,1,kötődik,WCDKR0,NŐ,1977.03.07,17,2021-05-14_14h25.06.554,ranlexdec,2020.2.5,Win32,60
,,,,,,,,,,,,right,1.31088,0,116,116,163,1,kollapszus,WCDKR0,NŐ,1977.03.07,17,2021-05-14_14h25.06.554,ranlexdec,2020.2.5,Win32,60
,,,,,,,,,,,,right,0.67011,0,117,117,244,1,kislány,WCDKR0,NŐ,1977.03.07,17,2021-05-14_14h25.06.554,ranlexdec,2020.2.5,Win32,60
,,,,,,,,,,,,right,0.901495,0,118,118,115,1,fajansz,WCDKR0,NŐ,1977.03.07,17,2021-05-14_14h25.06.554,ranlexdec,2020.2.5,Win32,60
,,,,,,,,,,,,left,2.13831,0,119,119,75,1,karnogó,WCDKR0,NŐ,1977.03.07,17,2021-05-14_14h25.06.554,ranlexdec,2020.2.5,Win32,60
,,,,,,,,,,,,right,1.66242,0,120,120,146,1,kondenzcsík,WCDKR0,NŐ,1977.03.07,17,2021-05-14_14h25.06.554,ranlexdec,2020.2.5,Win32,60
,,,,,,,,,,,,left,2.57135,0,121,121,36,1,tröshet,WCDKR0,NŐ,1977.03.07,17,2021-05-14_14h25.06.554,ranlexdec,2020.2.5,Win32,60
,,,,,,,,,,,,left,3.708595,0,122,122,191,1,hitódó,WCDKR0,NŐ,1977.03.07,17,2021-05-14_14h25.06.554,ranlexdec,2020.2.5,Win32,60
,,,,,,,,,,,,right,0.987195,0,123,123,148,1,mellényzseb,WCDKR0,NŐ,1977.03.07,17,2021-05-14_14h25.06.554,ranlexdec,2020.2.5,Win32,60
,,,,,,,,,,,,right,0.67396,0,124,124,140,1,diktátor,WCDKR0,NŐ,1977.03.07,17,2021-05-14_14h25.06.554,ranlexdec,2020.2.5,Win32,60
,,,,,,,,,,,,right,1.87336,0,125,125,35,1,türemlik,WCDKR0,NŐ,1977.03.07,17,2021-05-14_14h25.06.554,ranlexdec,2020.2.5,Win32,60
,,,,,,,,,,,,right,0.76098,0,126,126,226,1,szalicil,WCDKR0,NŐ,1977.03.07,17,2021-05-14_14h25.06.554,ranlexdec,2020.2.5,Win32,60
,,,,,,,,,,,,right,2.77078,0,127,127,17,1,magmatit,WCDKR0,NŐ,1977.03.07,17,2021-05-14_14h25.06.554,ranlexdec,2020.2.5,Win32,60
,,,,,,,,,,,,left,3.20404,0,128,128,83,1,vonzum,WCDKR0,NŐ,1977.03.07,17,2021-05-14_14h25.06.554,ranlexdec,2020.2.5,Win32,60
,,,,,,,,,,,,left,2.397095,0,129,129,2,1,gyásos,WCDKR0,NŐ,1977.03.07,17,2021-05-14_14h25.06.554,ranlexdec,2020.2.5,Win32,60
,,,,,,,,,,,,right,1.31604,0,130,130,87,1,forrpont,WCDKR0,NŐ,1977.03.07,17,2021-05-14_14h25.06.554,ranlexdec,2020.2.5,Win32,60
,,,,,,,,,,,,right,0.675135,0,131,131,80,1,darab,WCDKR0,NŐ,1977.03.07,17,2021-05-14_14h25.06.554,ranlexdec,2020.2.5,Win32,60
,,,,,,,,,,,,right,0.97882,0,132,132,190,1,rámáz,WCDKR0,NŐ,1977.03.07,17,2021-05-14_14h25.06.554,ranlexdec,2020.2.5,Win32,60
,,,,,,,,,,,,right,6.03144,0,133,133,40,1,diviz,WCDKR0,NŐ,1977.03.07,17,2021-05-14_14h25.06.554,ranlexdec,2020.2.5,Win32,60
,,,,,,,,,,,,right,1.06876,0,134,134,118,1,libling,WCDKR0,NŐ,1977.03.07,17,2021-05-14_14h25.06.554,ranlexdec,2020.2.5,Win32,60
,,,,,,,,,,,,left,3.70845,0,135,135,125,1,úszamos,WCDKR0,NŐ,1977.03.07,17,2021-05-14_14h25.06.554,ranlexdec,2020.2.5,Win32,60
,,,,,,,,,,,,left,2.234275,0,136,136,23,1,szelégül,WCDKR0,NŐ,1977.03.07,17,2021-05-14_14h25.06.554,ranlexdec,2020.2.5,Win32,60
,,,,,,,,,,,,right,1.00107,0,137,137,182,1,nagyszámú,WCDKR0,NŐ,1977.03.07,17,2021-05-14_14h25.06.554,ranlexdec,2020.2.5,Win32,60
,,,,,,,,,,,,left,6.069325,0,138,138,205,1,mimézis,WCDKR0,NŐ,1977.03.07,17,2021-05-14_14h25.06.554,ranlexdec,2020.2.5,Win32,60
,,,,,,,,,,,,right,0.560705,0,139,139,78,1,törékeny,WCDKR0,NŐ,1977.03.07,17,2021-05-14_14h25.06.554,ranlexdec,2020.2.5,Win32,60
,,,,,,,,,,,,right,1.13903,0,140,140,165,1,lépték,WCDKR0,NŐ,1977.03.07,17,2021-05-14_14h25.06.554,ranlexdec,2020.2.5,Win32,60
,,,,,,,,,,,,right,1.27131,0,141,141,111,1,koenzim,WCDKR0,NŐ,1977.03.07,17,2021-05-14_14h25.06.554,ranlexdec,2020.2.5,Win32,60
,,,,,,,,,,,,right,0.89453,0,142,142,19,1,tangózik,WCDKR0,NŐ,1977.03.07,17,2021-05-14_14h25.06.554,ranlexdec,2020.2.5,Win32,60
,,,,,,,,,,,,right,0.89955,0,143,143,57,1,lejmol,WCDKR0,NŐ,1977.03.07,17,2021-05-14_14h25.06.554,ranlexdec,2020.2.5,Win32,60
,,,,,,,,,,,,left,2.944455,0,144,144,26,1,aurult,WCDKR0,NŐ,1977.03.07,17,2021-05-14_14h25.06.554,ranlexdec,2020.2.5,Win32,60
,,,,,,,,,,,,right,0.54008,0,145,145,67,1,szegény,WCDKR0,NŐ,1977.03.07,17,2021-05-14_14h25.06.554,ranlexdec,2020.2.5,Win32,60
,,,,,,,,,,,,right,1.776995,0,146,146,177,1,pereg,WCDKR0,NŐ,1977.03.07,17,2021-05-14_14h25.06.554,ranlexdec,2020.2.5,Win32,60
,,,,,,,,,,,,right,1.125275,0,147,147,123,1,luftballon,WCDKR0,NŐ,1977.03.07,17,2021-05-14_14h25.06.554,ranlexdec,2020.2.5,Win32,60
,,,,,,,,,,,,right,1.00053,0,148,148,136,1,rücsök,WCDKR0,NŐ,1977.03.07,17,2021-05-14_14h25.06.554,ranlexdec,2020.2.5,Win32,60
,,,,,,,,,,,,right,1.30734,0,149,149,37,1,lukaszt,WCDKR0,NŐ,1977.03.07,17,2021-05-14_14h25.06.554,ranlexdec,2020.2.5,Win32,60
,,,,,,,,,,,,right,1.07253,0,150,150,193,1,bacon,WCDKR0,NŐ,1977.03.07,17,2021-05-14_14h25.06.554,ranlexdec,2020.2.5,Win32,60
,,,,,,,,,,,,left,2.375935,0,151,151,155,1,megpadék,WCDKR0,NŐ,1977.03.07,17,2021-05-14_14h25.06.554,ranlexdec,2020.2.5,Win32,60
,,,,,,,,,,,,right,1.02023,0,152,152,234,1,fertilis,WCDKR0,NŐ,1977.03.07,17,2021-05-14_14h25.06.554,ranlexdec,2020.2.5,Win32,60
,,,,,,,,,,,,right,1.3447,0,153,153,145,1,kurtít,WCDKR0,NŐ,1977.03.07,17,2021-05-14_14h25.06.554,ranlexdec,2020.2.5,Win32,60
,,,,,,,,,,,,left,5.58142,0,154,154,71,1,extuál,WCDKR0,NŐ,1977.03.07,17,2021-05-14_14h25.06.554,ranlexdec,2020.2.5,Win32,60
,,,,,,,,,,,,right,0.88838,0,155,155,31,1,iszlám,WCDKR0,NŐ,1977.03.07,17,2021-05-14_14h25.06.554,ranlexdec,2020.2.5,Win32,60
,,,,,,,,,,,,left,7.00291,0,156,156,97,1,vésségi,WCDKR0,NŐ,1977.03.07,17,2021-05-14_14h25.06.554,ranlexdec,2020.2.5,Win32,60
,,,,,,,,,,,,right,1.027225,0,157,157,14,1,selypít,WCDKR0,NŐ,1977.03.07,17,2021-05-14_14h25.06.554,ranlexdec,2020.2.5,Win32,60
,,,,,,,,,,,,right,0.65767,0,158,158,8,1,kulcscsont,WCDKR0,NŐ,1977.03.07,17,2021-05-14_14h25.06.554,ranlexdec,2020.2.5,Win32,60
,,,,,,,,,,,,right,0.70201,0,159,159,236,1,csatázik,WCDKR0,NŐ,1977.03.07,17,2021-05-14_14h25.06.554,ranlexdec,2020.2.5,Win32,60
,,,,,,,,,,,,right,0.62705,0,160,160,183,1,színpad,WCDKR0,NŐ,1977.03.07,17,2021-05-14_14h25.06.554,ranlexdec,2020.2.5,Win32,60
,,,,,,,,,,,,right,0.602335,0,161,161,105,1,tököl,WCDKR0,NŐ,1977.03.07,17,2021-05-14_14h25.06.554,ranlexdec,2020.2.5,Win32,60
,,,,,,,,,,,,left,3.180635,0,162,162,103,1,szabotró,WCDKR0,NŐ,1977.03.07,17,2021-05-14_14h25.06.554,ranlexdec,2020.2.5,Win32,60
,,,,,,,,,,,,right,2.78794,0,163,163,38,1,zomogyi,WCDKR0,NŐ,1977.03.07,17,2021-05-14_14h25.06.554,ranlexdec,2020.2.5,Win32,60
,,,,,,,,,,,,right,0.764345,0,164,164,213,1,eszköz,WCDKR0,NŐ,1977.03.07,17,2021-05-14_14h25.06.554,ranlexdec,2020.2.5,Win32,60
,,,,,,,,,,,,right,1.590675,0,165,165,212,1,farkasbab,WCDKR0,NŐ,1977.03.07,17,2021-05-14_14h25.06.554,ranlexdec,2020.2.5,Win32,60
,,,,,,,,,,,,right,0.685845,0,166,166,130,1,derít,WCDKR0,NŐ,1977.03.07,17,2021-05-14_14h25.06.554,ranlexdec,2020.2.5,Win32,60
,,,,,,,,,,,,right,1.280615,0,167,167,60,1,bárányfark,WCDKR0,NŐ,1977.03.07,17,2021-05-14_14h25.06.554,ranlexdec,2020.2.5,Win32,60
,,,,,,,,,,,,right,0.78716,0,168,168,220,1,csontdarab,WCDKR0,NŐ,1977.03.07,17,2021-05-14_14h25.06.554,ranlexdec,2020.2.5,Win32,60
,,,,,,,,,,,,right,0.673185,0,169,169,98,1,mítosz,WCDKR0,NŐ,1977.03.07,17,2021-05-14_14h25.06.554,ranlexdec,2020.2.5,Win32,60
,,,,,,,,,,,,right,1.02738,0,170,170,222,1,nyersarany,WCDKR0,NŐ,1977.03.07,17,2021-05-14_14h25.06.554,ranlexdec,2020.2.5,Win32,60
,,,,,,,,,,,,right,0.55214,0,171,171,86,1,jármű,WCDKR0,NŐ,1977.03.07,17,2021-05-14_14h25.06.554,ranlexdec,2020.2.5,Win32,60
,,,,,,,,,,,,right,0.64048,0,172,172,45,1,népszerű,WCDKR0,NŐ,1977.03.07,17,2021-05-14_14h25.06.554,ranlexdec,2020.2.5,Win32,60
,,,,,,,,,,,,right,0.68992,0,173,173,99,1,sárgaréz,WCDKR0,NŐ,1977.03.07,17,2021-05-14_14h25.06.554,ranlexdec,2020.2.5,Win32,60
,,,,,,,,,,,,right,0.70005,0,174,174,179,1,töredék,WCDKR0,NŐ,1977.03.07,17,2021-05-14_14h25.06.554,ranlexdec,2020.2.5,Win32,60
,,,,,,,,,,,,right,0.472835,0,175,175,43,1,közhely,WCDKR0,NŐ,1977.03.07,17,2021-05-14_14h25.06.554,ranlexdec,2020.2.5,Win32,60
,,,,,,,,,,,,left,2.41644,0,176,176,93,1,kilukát,WCDKR0,NŐ,1977.03.07,17,2021-05-14_14h25.06.554,ranlexdec,2020.2.5,Win32,60
,,,,,,,,,,,,right,0.98079,0,177,177,51,1,bajuszfű,WCDKR0,NŐ,1977.03.07,17,2021-05-14_14h25.06.554,ranlexdec,2020.2.5,Win32,60
,,,,,,,,,,,,left,1.00134,0,178,178,5,1,retta,WCDKR0,NŐ,1977.03.07,17,2021-05-14_14h25.06.554,ranlexdec,2020.2.5,Win32,60
,,,,,,,,,,,,right,0.613895,0,179,179,208,1,lélek,WCDKR0,NŐ,1977.03.07,17,2021-05-14_14h25.06.554,ranlexdec,2020.2.5,Win32,60
,,,,,,,,,,,,left,2.544,0,180,180,81,1,takorák,WCDKR0,NŐ,1977.03.07,17,2021-05-14_14h25.06.554,ranlexdec,2020.2.5,Win32,60
,,,,,,,,,,,,right,1.260135,0,181,181,69,1,gerencsér,WCDKR0,NŐ,1977.03.07,17,2021-05-14_14h25.06.554,ranlexdec,2020.2.5,Win32,60
,,,,,,,,,,,,right,0.61688,0,182,182,55,1,látszik,WCDKR0,NŐ,1977.03.07,17,2021-05-14_14h25.06.554,ranlexdec,2020.2.5,Win32,60
,,,,,,,,,,,,right,0.501755,0,183,183,132,1,hatalom,WCDKR0,NŐ,1977.03.07,17,2021-05-14_14h25.06.554,ranlexdec,2020.2.5,Win32,60
,,,,,,,,,,,,right,1.49884,0,184,184,84,1,kúpol,WCDKR0,NŐ,1977.03.07,17,2021-05-14_14h25.06.554,ranlexdec,2020.2.5,Win32,60
,,,,,,,,,,,,right,0.92076,0,185,185,82,1,kvéker,WCDKR0,NŐ,1977.03.07,17,2021-05-14_14h25.06.554,ranlexdec,2020.2.5,Win32,60
,,,,,,,,,,,,right,1.009035,0,186,186,195,1,petél,WCDKR0,NŐ,1977.03.07,17,2021-05-14_14h25.06.554,ranlexdec,2020.2.5,Win32,60
,,,,,,,,,,,,left,4.61122,0,187,187,219,1,szimboló,WCDKR0,NŐ,1977.03.07,17,2021-05-14_14h25.06.554,ranlexdec,2020.2.5,Win32,60
,,,,,,,,,,,,right,5.47603,0,188,188,180,1,adszorbens,WCDKR0,NŐ,1977.03.07,17,2021-05-14_14h25.06.554,ranlexdec,2020.2.5,Win32,60
,,,,,,,,,,,,right,0.657215,0,189,189,114,1,tartalom,WCDKR0,NŐ,1977.03.07,17,2021-05-14_14h25.06.554,ranlexdec,2020.2.5,Win32,60
,,,,,,,,,,,,right,1.35015,0,190,190,150,1,orront,WCDKR0,NŐ,1977.03.07,17,2021-05-14_14h25.06.554,ranlexdec,2020.2.5,Win32,60
,,,,,,,,,,,,right,0.5494,0,191,191,88,1,pohár,WCDKR0,NŐ,1977.03.07,17,2021-05-14_14h25.06.554,ranlexdec,2020.2.5,Win32,60
,,,,,,,,,,,,left,3.964955,0,192,192,107,1,kelől,WCDKR0,NŐ,1977.03.07,17,2021-05-14_14h25.06.554,ranlexdec,2020.2.5,Win32,60
,,,,,,,,,,,,right,0.72595,0,193,193,246,1,beton,WCDKR0,NŐ,1977.03.07,17,2021-05-14_14h25.06.554,ranlexdec,2020.2.5,Win32,60
,,,,,,,,,,,,right,0.73588,0,194,194,160,1,százalék,WCDKR0,NŐ,1977.03.07,17,2021-05-14_14h25.06.554,ranlexdec,2020.2.5,Win32,60
,,,,,,,,,,,,right,1.06074,0,195,195,211,1,tábornagy,WCDKR0,NŐ,1977.03.07,17,2021-05-14_14h25.06.554,ranlexdec,2020.2.5,Win32,60
,,,,,,,,,,,,right,1.05732,0,196,196,32,1,genom,WCDKR0,NŐ,1977.03.07,17,2021-05-14_14h25.06.554,ranlexdec,2020.2.5,Win32,60
,,,,,,,,,,,,right,2.110105,0,197,197,152,1,rakódik,WCDKR0,NŐ,1977.03.07,17,2021-05-14_14h25.06.554,ranlexdec,2020.2.5,Win32,60
,,,,,,,,,,,,right,0.565005,0,198,198,126,1,rejtőzik,WCDKR0,NŐ,1977.03.07,17,2021-05-14_14h25.06.554,ranlexdec,2020.2.5,Win32,60
,,,,,,,,,,,,right,0.66336,0,199,199,171,1,újgazdag,WCDKR0,NŐ,1977.03.07,17,2021-05-14_14h25.06.554,ranlexdec,2020.2.5,Win32,60
,,,,,,,,,,,,right,1.094005,0,200,200,249,1,kencéz,WCDKR0,NŐ,1977.03.07,17,2021-05-14_14h25.06.554,ranlexdec,2020.2.5,Win32,60
,,,,,,,,,,,,left,2.041345,0,201,201,229,1,lemesség,WCDKR0,NŐ,1977.03.07,17,2021-05-14_14h25.06.554,ranlexdec,2020.2.5,Win32,60
,,,,,,,,,,,,right,1.162265,0,202,202,186,1,piláf,WCDKR0,NŐ,1977.03.07,17,2021-05-14_14h25.06.554,ranlexdec,2020.2.5,Win32,60
,,,,,,,,,,,,left,2.788405,0,203,203,192,1,norvend,WCDKR0,NŐ,1977.03.07,17,2021-05-14_14h25.06.554,ranlexdec,2020.2.5,Win32,60
,,,,,,,,,,,,right,0.907155,0,204,204,135,1,ion,WCDKR0,NŐ,1977.03.07,17,2021-05-14_14h25.06.554,ranlexdec,2020.2.5,Win32,60
,,,,,,,,,,,,right,0.747215,0,205,205,228,1,tarol,WCDKR0,NŐ,1977.03.07,17,2021-05-14_14h25.06.554,ranlexdec,2020.2.5,Win32,60
,,,,,,,,,,,,right,0.681975,0,206,206,157,1,káder,WCDKR0,NŐ,1977.03.07,17,2021-05-14_14h25.06.554,ranlexdec,2020.2.5,Win32,60
,,,,,,,,,,,,left,2.876275,0,207,207,112,1,méhezter,WCDKR0,NŐ,1977.03.07,17,2021-05-14_14h25.06.554,ranlexdec,2020.2.5,Win32,60
,,,,,,,,,,,,right,0.962885,0,208,208,64,1,hálózsák,WCDKR0,NŐ,1977.03.07,17,2021-05-14_14h25.06.554,ranlexdec,2020.2.5,Win32,60
,,,,,,,,,,,,right,0.733755,0,209,209,100,1,balközép,WCDKR0,NŐ,1977.03.07,17,2021-05-14_14h25.06.554,ranlexdec,2020.2.5,Win32,60
,,,,,,,,,,,,right,0.76158,0,210,210,238,1,bolgár,WCDKR0,NŐ,1977.03.07,17,2021-05-14_14h25.06.554,ranlexdec,2020.2.5,Win32,60
,,,,,,,,,,,,right,0.675575,0,211,211,124,1,alkalom,WCDKR0,NŐ,1977.03.07,17,2021-05-14_14h25.06.554,ranlexdec,2020.2.5,Win32,60
,,,,,,,,,,,,left,1.70743,0,212,212,127,1,rozintem,WCDKR0,NŐ,1977.03.07,17,2021-05-14_14h25.06.554,ranlexdec,2020.2.5,Win32,60
,,,,,,,,,,,,right,0.58698,0,213,213,56,1,kanalaz,WCDKR0,NŐ,1977.03.07,17,2021-05-14_14h25.06.554,ranlexdec,2020.2.5,Win32,60
,,,,,,,,,,,,right,0.62712,0,214,214,245,1,ellenfél,WCDKR0,NŐ,1977.03.07,17,2021-05-14_14h25.06.554,ranlexdec,2020.2.5,Win32,60
,,,,,,,,,,,,right,0.681505,0,215,215,143,1,rojtoz,WCDKR0,NŐ,1977.03.07,17,2021-05-14_14h25.06.554,ranlexdec,2020.2.5,Win32,60
,,,,,,,,,,,,right,0.739645,0,216,216,53,1,puritán,WCDKR0,NŐ,1977.03.07,17,2021-05-14_14h25.06.554,ranlexdec,2020.2.5,Win32,60
,,,,,,,,,,,,right,0.55229,0,217,217,110,1,időszak,WCDKR0,NŐ,1977.03.07,17,2021-05-14_14h25.06.554,ranlexdec,2020.2.5,Win32,60
,,,,,,,,,,,,left,1.120635,0,218,218,16,1,cséltás,WCDKR0,NŐ,1977.03.07,17,2021-05-14_14h25.06.554,ranlexdec,2020.2.5,Win32,60
,,,,,,,,,,,,right,1.337895,0,219,219,96,1,alfél,WCDKR0,NŐ,1977.03.07,17,2021-05-14_14h25.06.554,ranlexdec,2020.2.5,Win32,60
,,,,,,,,,,,,right,0.52043,0,220,220,58,1,barát,WCDKR0,NŐ,1977.03.07,17,2021-05-14_14h25.06.554,ranlexdec,2020.2.5,Win32,60
,,,,,,,,,,,,right,0.760895,0,221,221,101,1,nukleon,WCDKR0,NŐ,1977.03.07,17,2021-05-14_14h25.06.554,ranlexdec,2020.2.5,Win32,60
,,,,,,,,,,,,right,0.707025,0,222,222,34,1,csengettyű,WCDKR0,NŐ,1977.03.07,17,2021-05-14_14h25.06.554,ranlexdec,2020.2.5,Win32,60
,,,,,,,,,,,,right,0.978405,0,223,223,175,1,szilikát,WCDKR0,NŐ,1977.03.07,17,2021-05-14_14h25.06.554,ranlexdec,2020.2.5,Win32,60
,,,,,,,,,,,,left,2.481305,0,224,224,142,1,storítő,WCDKR0,NŐ,1977.03.07,17,2021-05-14_14h25.06.554,ranlexdec,2020.2.5,Win32,60
,,,,,,,,,,,,right,0.61624,0,225,225,154,1,keresztény,WCDKR0,NŐ,1977.03.07,17,2021-05-14_14h25.06.554,ranlexdec,2020.2.5,Win32,60
,,,,,,,,,,,,left,2.62921,0,226,226,164,1,kurzivál,WCDKR0,NŐ,1977.03.07,17,2021-05-14_14h25.06.554,ranlexdec,2020.2.5,Win32,60
,,,,,,,,,,,,right,0.55591,0,227,227,176,1,bélyeg,WCDKR0,NŐ,1977.03.07,17,2021-05-14_14h25.06.554,ranlexdec,2020.2.5,Win32,60
,,,,,,,,,,,,right,0.787555,0,228,228,92,1,lágyék,WCDKR0,NŐ,1977.03.07,17,2021-05-14_14h25.06.554,ranlexdec,2020.2.5,Win32,60
,,,,,,,,,,,,right,1.227325,0,229,229,225,1,bajadér,WCDKR0,NŐ,1977.03.07,17,2021-05-14_14h25.06.554,ranlexdec,2020.2.5,Win32,60
,,,,,,,,,,,,left,4.49033,0,230,230,65,1,infimum,WCDKR0,NŐ,1977.03.07,17,2021-05-14_14h25.06.554,ranlexdec,2020.2.5,Win32,60
,,,,,,,,,,,,right,0.578675,0,231,231,201,1,szempont,WCDKR0,NŐ,1977.03.07,17,2021-05-14_14h25.06.554,ranlexdec,2020.2.5,Win32,60
,,,,,,,,,,,,right,0.73574,0,232,232,54,1,fürkész,WCDKR0,NŐ,1977.03.07,17,2021-05-14_14h25.06.554,ranlexdec,2020.2.5,Win32,60
,,,,,,,,,,,,right,0.700425,0,233,233,151,1,komplex,WCDKR0,NŐ,1977.03.07,17,2021-05-14_14h25.06.554,ranlexdec,2020.2.5,Win32,60
,,,,,,,,,,,,right,1.057305,0,234,234,1,1,csapdáz,WCDKR0,NŐ,1977.03.07,17,2021-05-14_14h25.06.554,ranlexdec,2020.2.5,Win32,60
,,,,,,,,,,,,left,1.000645,0,235,235,3,1,tömzsa,WCDKR0,NŐ,1977.03.07,17,2021-05-14_14h25.06.554,ranlexdec,2020.2.5,Win32,60
,,,,,,,,,,,,left,1.881195,0,236,236,108,1,konyrúd,WCDKR0,NŐ,1977.03.07,17,2021-05-14_14h25.06.554,ranlexdec,2020.2.5,Win32,60
,,,,,,,,,,,,right,1.467745,0,237,237,158,1,hidroxid,WCDKR0,NŐ,1977.03.07,17,2021-05-14_14h25.06.554,ranlexdec,2020.2.5,Win32,60
,,,,,,,,,,,,left,1.68081,0,238,238,109,1,vényegő,WCDKR0,NŐ,1977.03.07,17,2021-05-14_14h25.06.554,ranlexdec,2020.2.5,Win32,60
,,,,,,,,,,,,left,0.79451,0,239,239,52,1,kunyai,WCDKR0,NŐ,1977.03.07,17,2021-05-14_14h25.06.554,ranlexdec,2020.2.5,Win32,60
,,,,,,,,,,,,left,1.17041,0,240,240,207,1,diffamál,WCDKR0,NŐ,1977.03.07,17,2021-05-14_14h25.06.554,ranlexdec,2020.2.5,Win32,60
,,,,,,,,,,,,right,1.96086,0,241,241,243,1,dipeptid,WCDKR0,NŐ,1977.03.07,17,2021-05-14_14h25.06.554,ranlexdec,2020.2.5,Win32,60
,,,,,,,,,,,,right,0.787275,0,242,242,39,1,könnyelmű,WCDKR0,NŐ,1977.03.07,17,2021-05-14_14h25.06.554,ranlexdec,2020.2.5,Win32,60
,,,,,,,,,,,,right,0.874605,0,243,243,172,1,kettősfém,WCDKR0,NŐ,1977.03.07,17,2021-05-14_14h25.06.554,ranlexdec,2020.2.5,Win32,60
,,,,,,,,,,,,right,1.307305,0,244,244,18,1,csapattest,WCDKR0,NŐ,1977.03.07,17,2021-05-14_14h25.06.554,ranlexdec,2020.2.5,Win32,60
,,,,,,,,,,,,left,2.56955,0,245,245,76,1,jegedény,WCDKR0,NŐ,1977.03.07,17,2021-05-14_14h25.06.554,ranlexdec,2020.2.5,Win32,60
,,,,,,,,,,,,right,0.77001,0,246,246,122,1,égitest,WCDKR0,NŐ,1977.03.07,17,2021-05-14_14h25.06.554,ranlexdec,2020.2.5,Win32,60
,,,,,,,,,,,,left,0.973845,0,247,247,77,1,egant,WCDKR0,NŐ,1977.03.07,17,2021-05-14_14h25.06.554,ranlexdec,2020.2.5,Win32,60
,,,,,,,,,,,,right,0.769305,0,248,248,178,1,sziszeg,WCDKR0,NŐ,1977.03.07,17,2021-05-14_14h25.06.554,ranlexdec,2020.2.5,Win32,60
,,,,,,,,,,,,right,0.60372,0,249,249,214,1,tenger,WCDKR0,NŐ,1977.03.07,17,2021-05-14_14h25.06.554,ranlexdec,2020.2.5,Win32,60
