ready2_2.keys,ready2_2.rt,ready2.keys,ready2.rt,key_resp.keys,key_resp.rt,key_resp_3.keys,key_resp_3.rt,key_resp_2.keys,key_resp_2.rt,ready3.keys,ready3.rt,resp.keys,resp.rt,withinBlock.thisRepN,withinBlock.thisTrialN,withinBlock.thisN,withinBlock.thisIndex,withinBlock.ran,word,Azonosító,Az Ön neme,Születési éve,Hány évet töltött az iskolapadban (egyetemet is beleértve),date,expName,psychopyVersion,OS,frameRate
right,19.363,right,17.673,right,0.608,left,0.412,right,0.644,left,0.117,right,4.643,0,0,0,138,1,gyűjtemény,KT108,nő,2001,13,2021-05-13_08h13.37.390,ranlexdec,2020.2.5,Win32,60
,,,,,,,,,,,,right,1.2,0,1,1,95,1,skubizik,KT108,nő,2001,13,2021-05-13_08h13.37.390,ranlexdec,2020.2.5,Win32,60
,,,,,,,,,,,,left,1.198,0,2,2,237,1,forgórész,KT108,nő,2001,13,2021-05-13_08h13.37.390,ranlexdec,2020.2.5,Win32,60
,,,,,,,,,,,,right,0.999,0,3,3,187,1,testnedv,KT108,nő,2001,13,2021-05-13_08h13.37.390,ranlexdec,2020.2.5,Win32,60
,,,,,,,,,,,,right,0.683,0,4,4,196,1,dolgozik,KT108,nő,2001,13,2021-05-13_08h13.37.390,ranlexdec,2020.2.5,Win32,60
,,,,,,,,,,,,left,0.866,0,5,5,65,1,infimum,KT108,nő,2001,13,2021-05-13_08h13.37.390,ranlexdec,2020.2.5,Win32,60
,,,,,,,,,,,,right,1.181,0,6,6,157,1,káder,KT108,nő,2001,13,2021-05-13_08h13.37.390,ranlexdec,2020.2.5,Win32,60
,,,,,,,,,,,,left,1.215,0,7,7,195,1,petél,KT108,nő,2001,13,2021-05-13_08h13.37.390,ranlexdec,2020.2.5,Win32,60
,,,,,,,,,,,,left,0.914,0,8,8,205,1,mimézis,KT108,nő,2001,13,2021-05-13_08h13.37.390,ranlexdec,2020.2.5,Win32,60
,,,,,,,,,,,,right,1.35,0,9,9,190,1,rámáz,KT108,nő,2001,13,2021-05-13_08h13.37.390,ranlexdec,2020.2.5,Win32,60
,,,,,,,,,,,,right,1.018,0,10,10,249,1,kencéz,KT108,nő,2001,13,2021-05-13_08h13.37.390,ranlexdec,2020.2.5,Win32,60
,,,,,,,,,,,,left,1.165,0,11,11,72,1,mihálóz,KT108,nő,2001,13,2021-05-13_08h13.37.390,ranlexdec,2020.2.5,Win32,60
,,,,,,,,,,,,right,1.015,0,12,12,32,1,genom,KT108,nő,2001,13,2021-05-13_08h13.37.390,ranlexdec,2020.2.5,Win32,60
,,,,,,,,,,,,left,1.014,0,13,13,60,1,bárányfark,KT108,nő,2001,13,2021-05-13_08h13.37.390,ranlexdec,2020.2.5,Win32,60
,,,,,,,,,,,,right,1.098,0,14,14,46,1,kurzív,KT108,nő,2001,13,2021-05-13_08h13.37.390,ranlexdec,2020.2.5,Win32,60
,,,,,,,,,,,,right,0.789,0,15,15,53,1,puritán,KT108,nő,2001,13,2021-05-13_08h13.37.390,ranlexdec,2020.2.5,Win32,60
,,,,,,,,,,,,right,0.566,0,16,16,210,1,karakter,KT108,nő,2001,13,2021-05-13_08h13.37.390,ranlexdec,2020.2.5,Win32,60
,,,,,,,,,,,,right,0.619,0,17,17,92,1,lágyék,KT108,nő,2001,13,2021-05-13_08h13.37.390,ranlexdec,2020.2.5,Win32,60
,,,,,,,,,,,,right,0.582,0,18,18,33,1,kalcium,KT108,nő,2001,13,2021-05-13_08h13.37.390,ranlexdec,2020.2.5,Win32,60
,,,,,,,,,,,,right,0.699,0,19,19,122,1,égitest,KT108,nő,2001,13,2021-05-13_08h13.37.390,ranlexdec,2020.2.5,Win32,60
,,,,,,,,,,,,left,0.65,0,20,20,81,1,takorák,KT108,nő,2001,13,2021-05-13_08h13.37.390,ranlexdec,2020.2.5,Win32,60
,,,,,,,,,,,,left,0.814,0,21,21,133,1,hübrisz,KT108,nő,2001,13,2021-05-13_08h13.37.390,ranlexdec,2020.2.5,Win32,60
,,,,,,,,,,,,left,0.799,0,22,22,192,1,norvend,KT108,nő,2001,13,2021-05-13_08h13.37.390,ranlexdec,2020.2.5,Win32,60
,,,,,,,,,,,,right,0.701,0,23,23,90,1,orális,KT108,nő,2001,13,2021-05-13_08h13.37.390,ranlexdec,2020.2.5,Win32,60
,,,,,,,,,,,,right,1.998,0,24,24,14,1,selypít,KT108,nő,2001,13,2021-05-13_08h13.37.390,ranlexdec,2020.2.5,Win32,60
,,,,,,,,,,,,right,0.733,0,25,25,85,1,glükóz,KT108,nő,2001,13,2021-05-13_08h13.37.390,ranlexdec,2020.2.5,Win32,60
,,,,,,,,,,,,right,0.532,0,26,26,170,1,változik,KT108,nő,2001,13,2021-05-13_08h13.37.390,ranlexdec,2020.2.5,Win32,60
,,,,,,,,,,,,right,0.515,0,27,27,136,1,rücsök,KT108,nő,2001,13,2021-05-13_08h13.37.390,ranlexdec,2020.2.5,Win32,60
,,,,,,,,,,,,right,0.516,0,28,28,169,1,komoly,KT108,nő,2001,13,2021-05-13_08h13.37.390,ranlexdec,2020.2.5,Win32,60
,,,,,,,,,,,,left,1.186,0,29,29,166,1,retálhit,KT108,nő,2001,13,2021-05-13_08h13.37.390,ranlexdec,2020.2.5,Win32,60
,,,,,,,,,,,,right,1.247,0,30,30,180,1,adszorbens,KT108,nő,2001,13,2021-05-13_08h13.37.390,ranlexdec,2020.2.5,Win32,60
,,,,,,,,,,,,left,1.468,0,31,31,209,1,hidegház,KT108,nő,2001,13,2021-05-13_08h13.37.390,ranlexdec,2020.2.5,Win32,60
,,,,,,,,,,,,right,0.867,0,32,32,31,1,iszlám,KT108,nő,2001,13,2021-05-13_08h13.37.390,ranlexdec,2020.2.5,Win32,60
,,,,,,,,,,,,left,0.935,0,33,33,97,1,vésségi,KT108,nő,2001,13,2021-05-13_08h13.37.390,ranlexdec,2020.2.5,Win32,60
,,,,,,,,,,,,left,0.982,0,34,34,26,1,aurult,KT108,nő,2001,13,2021-05-13_08h13.37.390,ranlexdec,2020.2.5,Win32,60
,,,,,,,,,,,,right,0.753,0,35,35,79,1,extrém,KT108,nő,2001,13,2021-05-13_08h13.37.390,ranlexdec,2020.2.5,Win32,60
,,,,,,,,,,,,right,1.002,0,36,36,213,1,eszköz,KT108,nő,2001,13,2021-05-13_08h13.37.390,ranlexdec,2020.2.5,Win32,60
,,,,,,,,,,,,left,0.864,0,37,37,242,1,rekvizit,KT108,nő,2001,13,2021-05-13_08h13.37.390,ranlexdec,2020.2.5,Win32,60
,,,,,,,,,,,,left,0.75,0,38,38,134,1,móringol,KT108,nő,2001,13,2021-05-13_08h13.37.390,ranlexdec,2020.2.5,Win32,60
,,,,,,,,,,,,right,1.064,0,39,39,13,1,törköly,KT108,nő,2001,13,2021-05-13_08h13.37.390,ranlexdec,2020.2.5,Win32,60
,,,,,,,,,,,,right,1.005,0,40,40,235,1,transzplantál,KT108,nő,2001,13,2021-05-13_08h13.37.390,ranlexdec,2020.2.5,Win32,60
,,,,,,,,,,,,left,0.801,0,41,41,51,1,bajuszfű,KT108,nő,2001,13,2021-05-13_08h13.37.390,ranlexdec,2020.2.5,Win32,60
,,,,,,,,,,,,right,0.651,0,42,42,7,1,űrlap,KT108,nő,2001,13,2021-05-13_08h13.37.390,ranlexdec,2020.2.5,Win32,60
,,,,,,,,,,,,right,0.899,0,43,43,215,1,neoprén,KT108,nő,2001,13,2021-05-13_08h13.37.390,ranlexdec,2020.2.5,Win32,60
,,,,,,,,,,,,left,0.818,0,44,44,112,1,méhezter,KT108,nő,2001,13,2021-05-13_08h13.37.390,ranlexdec,2020.2.5,Win32,60
,,,,,,,,,,,,right,0.899,0,45,45,193,1,bacon,KT108,nő,2001,13,2021-05-13_08h13.37.390,ranlexdec,2020.2.5,Win32,60
,,,,,,,,,,,,left,0.748,0,46,46,223,1,árstop,KT108,nő,2001,13,2021-05-13_08h13.37.390,ranlexdec,2020.2.5,Win32,60
,,,,,,,,,,,,right,0.894,0,47,47,185,1,gyülemlik,KT108,nő,2001,13,2021-05-13_08h13.37.390,ranlexdec,2020.2.5,Win32,60
,,,,,,,,,,,,left,0.949,0,48,48,240,1,áradmány,KT108,nő,2001,13,2021-05-13_08h13.37.390,ranlexdec,2020.2.5,Win32,60
,,,,,,,,,,,,right,0.566,0,49,49,214,1,tenger,KT108,nő,2001,13,2021-05-13_08h13.37.390,ranlexdec,2020.2.5,Win32,60
,,,,,,,,,,,,left,1.313,0,50,50,18,1,csapattest,KT108,nő,2001,13,2021-05-13_08h13.37.390,ranlexdec,2020.2.5,Win32,60
,,,,,,,,,,,,left,1.014,0,51,51,186,1,piláf,KT108,nő,2001,13,2021-05-13_08h13.37.390,ranlexdec,2020.2.5,Win32,60
,,,,,,,,,,,,right,0.813,0,52,52,220,1,csontdarab,KT108,nő,2001,13,2021-05-13_08h13.37.390,ranlexdec,2020.2.5,Win32,60
,,,,,,,,,,,,left,0.805,0,53,53,69,1,gerencsér,KT108,nő,2001,13,2021-05-13_08h13.37.390,ranlexdec,2020.2.5,Win32,60
,,,,,,,,,,,,right,0.716,0,54,54,227,1,kötődik,KT108,nő,2001,13,2021-05-13_08h13.37.390,ranlexdec,2020.2.5,Win32,60
,,,,,,,,,,,,right,1.021,0,55,55,111,1,koenzim,KT108,nő,2001,13,2021-05-13_08h13.37.390,ranlexdec,2020.2.5,Win32,60
,,,,,,,,,,,,left,1.698,0,56,56,172,1,kettősfém,KT108,nő,2001,13,2021-05-13_08h13.37.390,ranlexdec,2020.2.5,Win32,60
,,,,,,,,,,,,right,0.701,0,57,57,154,1,keresztény,KT108,nő,2001,13,2021-05-13_08h13.37.390,ranlexdec,2020.2.5,Win32,60
,,,,,,,,,,,,right,1.015,0,58,58,104,1,dolog,KT108,nő,2001,13,2021-05-13_08h13.37.390,ranlexdec,2020.2.5,Win32,60
,,,,,,,,,,,,left,1.082,0,59,59,109,1,vényegő,KT108,nő,2001,13,2021-05-13_08h13.37.390,ranlexdec,2020.2.5,Win32,60
,,,,,,,,,,,,left,0.884,0,60,60,16,1,cséltás,KT108,nő,2001,13,2021-05-13_08h13.37.390,ranlexdec,2020.2.5,Win32,60
,,,,,,,,,,,,left,0.566,0,61,61,5,1,retta,KT108,nő,2001,13,2021-05-13_08h13.37.390,ranlexdec,2020.2.5,Win32,60
,,,,,,,,,,,,right,1.064,0,62,62,27,1,sporthorgász,KT108,nő,2001,13,2021-05-13_08h13.37.390,ranlexdec,2020.2.5,Win32,60
,,,,,,,,,,,,left,1.101,0,63,63,105,1,tököl,KT108,nő,2001,13,2021-05-13_08h13.37.390,ranlexdec,2020.2.5,Win32,60
,,,,,,,,,,,,right,1.116,0,64,64,177,1,pereg,KT108,nő,2001,13,2021-05-13_08h13.37.390,ranlexdec,2020.2.5,Win32,60
,,,,,,,,,,,,right,0.901,0,65,65,64,1,hálózsák,KT108,nő,2001,13,2021-05-13_08h13.37.390,ranlexdec,2020.2.5,Win32,60
,,,,,,,,,,,,right,0.698,0,66,66,238,1,bolgár,KT108,nő,2001,13,2021-05-13_08h13.37.390,ranlexdec,2020.2.5,Win32,60
,,,,,,,,,,,,left,0.7,0,67,67,197,1,krakéler,KT108,nő,2001,13,2021-05-13_08h13.37.390,ranlexdec,2020.2.5,Win32,60
,,,,,,,,,,,,right,0.581,0,68,68,247,1,ausztrál,KT108,nő,2001,13,2021-05-13_08h13.37.390,ranlexdec,2020.2.5,Win32,60
,,,,,,,,,,,,right,0.564,0,69,69,121,1,aggófű,KT108,nő,2001,13,2021-05-13_08h13.37.390,ranlexdec,2020.2.5,Win32,60
,,,,,,,,,,,,right,0.788,0,70,70,231,1,igény,KT108,nő,2001,13,2021-05-13_08h13.37.390,ranlexdec,2020.2.5,Win32,60
,,,,,,,,,,,,left,0.75,0,71,71,91,1,tajtásos,KT108,nő,2001,13,2021-05-13_08h13.37.390,ranlexdec,2020.2.5,Win32,60
,,,,,,,,,,,,right,0.95,0,72,72,129,1,turné,KT108,nő,2001,13,2021-05-13_08h13.37.390,ranlexdec,2020.2.5,Win32,60
,,,,,,,,,,,,right,0.781,0,73,73,94,1,rotor,KT108,nő,2001,13,2021-05-13_08h13.37.390,ranlexdec,2020.2.5,Win32,60
,,,,,,,,,,,,right,1.18,0,74,74,101,1,nukleon,KT108,nő,2001,13,2021-05-13_08h13.37.390,ranlexdec,2020.2.5,Win32,60
,,,,,,,,,,,,left,0.869,0,75,75,3,1,tömzsa,KT108,nő,2001,13,2021-05-13_08h13.37.390,ranlexdec,2020.2.5,Win32,60
,,,,,,,,,,,,left,0.786,0,76,76,66,1,parkkói,KT108,nő,2001,13,2021-05-13_08h13.37.390,ranlexdec,2020.2.5,Win32,60
,,,,,,,,,,,,right,0.866,0,77,77,96,1,alfél,KT108,nő,2001,13,2021-05-13_08h13.37.390,ranlexdec,2020.2.5,Win32,60
,,,,,,,,,,,,left,0.565,0,78,78,40,1,diviz,KT108,nő,2001,13,2021-05-13_08h13.37.390,ranlexdec,2020.2.5,Win32,60
,,,,,,,,,,,,right,0.765,0,79,79,11,1,viszkóz,KT108,nő,2001,13,2021-05-13_08h13.37.390,ranlexdec,2020.2.5,Win32,60
,,,,,,,,,,,,left,0.664,0,80,80,173,1,glosszáz,KT108,nő,2001,13,2021-05-13_08h13.37.390,ranlexdec,2020.2.5,Win32,60
,,,,,,,,,,,,right,0.756,0,81,81,58,1,barát,KT108,nő,2001,13,2021-05-13_08h13.37.390,ranlexdec,2020.2.5,Win32,60
,,,,,,,,,,,,left,0.799,0,82,82,119,1,cugehőr,KT108,nő,2001,13,2021-05-13_08h13.37.390,ranlexdec,2020.2.5,Win32,60
,,,,,,,,,,,,right,0.832,0,83,83,228,1,tarol,KT108,nő,2001,13,2021-05-13_08h13.37.390,ranlexdec,2020.2.5,Win32,60
,,,,,,,,,,,,left,0.616,0,84,84,71,1,extuál,KT108,nő,2001,13,2021-05-13_08h13.37.390,ranlexdec,2020.2.5,Win32,60
,,,,,,,,,,,,left,1.065,0,85,85,207,1,diffamál,KT108,nő,2001,13,2021-05-13_08h13.37.390,ranlexdec,2020.2.5,Win32,60
,,,,,,,,,,,,left,1.164,0,86,86,139,1,vároló,KT108,nő,2001,13,2021-05-13_08h13.37.390,ranlexdec,2020.2.5,Win32,60
,,,,,,,,,,,,right,2.595,0,87,87,239,1,donhuán,KT108,nő,2001,13,2021-05-13_08h13.37.390,ranlexdec,2020.2.5,Win32,60
,,,,,,,,,,,,right,0.748,0,88,88,171,1,újgazdag,KT108,nő,2001,13,2021-05-13_08h13.37.390,ranlexdec,2020.2.5,Win32,60
,,,,,,,,,,,,left,1.428,0,89,89,42,1,összalaj,KT108,nő,2001,13,2021-05-13_08h13.37.390,ranlexdec,2020.2.5,Win32,60
,,,,,,,,,,,,right,0.698,0,90,90,116,1,árus,KT108,nő,2001,13,2021-05-13_08h13.37.390,ranlexdec,2020.2.5,Win32,60
,,,,,,,,,,,,left,1.147,0,91,91,189,1,konverzál,KT108,nő,2001,13,2021-05-13_08h13.37.390,ranlexdec,2020.2.5,Win32,60
,,,,,,,,,,,,left,0.966,0,92,92,164,1,kurzivál,KT108,nő,2001,13,2021-05-13_08h13.37.390,ranlexdec,2020.2.5,Win32,60
,,,,,,,,,,,,left,0.866,0,93,93,47,1,döföl,KT108,nő,2001,13,2021-05-13_08h13.37.390,ranlexdec,2020.2.5,Win32,60
,,,,,,,,,,,,left,0.684,0,94,94,102,1,pentez,KT108,nő,2001,13,2021-05-13_08h13.37.390,ranlexdec,2020.2.5,Win32,60
,,,,,,,,,,,,left,0.682,0,95,95,82,1,kvéker,KT108,nő,2001,13,2021-05-13_08h13.37.390,ranlexdec,2020.2.5,Win32,60
,,,,,,,,,,,,left,2.666,0,96,96,4,1,viszonvád,KT108,nő,2001,13,2021-05-13_08h13.37.390,ranlexdec,2020.2.5,Win32,60
,,,,,,,,,,,,right,0.884,0,97,97,158,1,hidroxid,KT108,nő,2001,13,2021-05-13_08h13.37.390,ranlexdec,2020.2.5,Win32,60
,,,,,,,,,,,,right,0.633,0,98,98,130,1,derít,KT108,nő,2001,13,2021-05-13_08h13.37.390,ranlexdec,2020.2.5,Win32,60
,,,,,,,,,,,,right,0.564,0,99,99,100,1,balközép,KT108,nő,2001,13,2021-05-13_08h13.37.390,ranlexdec,2020.2.5,Win32,60
,,,,,,,,,,,,right,0.548,0,100,100,39,1,könnyelmű,KT108,nő,2001,13,2021-05-13_08h13.37.390,ranlexdec,2020.2.5,Win32,60
,,,,,,,,,,,,right,0.551,0,101,101,9,1,hajlik,KT108,nő,2001,13,2021-05-13_08h13.37.390,ranlexdec,2020.2.5,Win32,60
,,,,,,,,,,,,right,0.532,0,102,102,184,1,profit,KT108,nő,2001,13,2021-05-13_08h13.37.390,ranlexdec,2020.2.5,Win32,60
,,,,,,,,,,,,right,1.299,0,103,103,149,1,anorák,KT108,nő,2001,13,2021-05-13_08h13.37.390,ranlexdec,2020.2.5,Win32,60
,,,,,,,,,,,,right,1.148,0,104,104,41,1,nagybeteg,KT108,nő,2001,13,2021-05-13_08h13.37.390,ranlexdec,2020.2.5,Win32,60
,,,,,,,,,,,,right,0.533,0,105,105,2,1,gyásos,KT108,nő,2001,13,2021-05-13_08h13.37.390,ranlexdec,2020.2.5,Win32,60
,,,,,,,,,,,,right,1.231,0,106,106,162,1,nimbus,KT108,nő,2001,13,2021-05-13_08h13.37.390,ranlexdec,2020.2.5,Win32,60
,,,,,,,,,,,,right,0.768,0,107,107,145,1,kurtít,KT108,nő,2001,13,2021-05-13_08h13.37.390,ranlexdec,2020.2.5,Win32,60
,,,,,,,,,,,,right,0.216,0,108,108,8,1,kulcscsont,KT108,nő,2001,13,2021-05-13_08h13.37.390,ranlexdec,2020.2.5,Win32,60
,,,,,,,,,,,,left,1.046,0,109,109,153,1,kontrapunkt,KT108,nő,2001,13,2021-05-13_08h13.37.390,ranlexdec,2020.2.5,Win32,60
,,,,,,,,,,,,right,0.998,0,110,110,45,1,népszerű,KT108,nő,2001,13,2021-05-13_08h13.37.390,ranlexdec,2020.2.5,Win32,60
,,,,,,,,,,,,left,1.098,0,111,111,15,1,pauzál,KT108,nő,2001,13,2021-05-13_08h13.37.390,ranlexdec,2020.2.5,Win32,60
,,,,,,,,,,,,right,1.387,0,112,112,67,1,szegény,KT108,nő,2001,13,2021-05-13_08h13.37.390,ranlexdec,2020.2.5,Win32,60
,,,,,,,,,,,,right,0.917,0,113,113,241,1,kárpit,KT108,nő,2001,13,2021-05-13_08h13.37.390,ranlexdec,2020.2.5,Win32,60
,,,,,,,,,,,,right,0.881,0,114,114,1,1,csapdáz,KT108,nő,2001,13,2021-05-13_08h13.37.390,ranlexdec,2020.2.5,Win32,60
,,,,,,,,,,,,left,0.865,0,115,115,103,1,szabotró,KT108,nő,2001,13,2021-05-13_08h13.37.390,ranlexdec,2020.2.5,Win32,60
,,,,,,,,,,,,right,1.615,0,116,116,123,1,luftballon,KT108,nő,2001,13,2021-05-13_08h13.37.390,ranlexdec,2020.2.5,Win32,60
,,,,,,,,,,,,left,0.75,0,117,117,203,1,abeti,KT108,nő,2001,13,2021-05-13_08h13.37.390,ranlexdec,2020.2.5,Win32,60
,,,,,,,,,,,,right,0.981,0,118,118,160,1,százalék,KT108,nő,2001,13,2021-05-13_08h13.37.390,ranlexdec,2020.2.5,Win32,60
,,,,,,,,,,,,right,1.031,0,119,119,37,1,lukaszt,KT108,nő,2001,13,2021-05-13_08h13.37.390,ranlexdec,2020.2.5,Win32,60
,,,,,,,,,,,,right,0.732,0,120,120,140,1,diktátor,KT108,nő,2001,13,2021-05-13_08h13.37.390,ranlexdec,2020.2.5,Win32,60
,,,,,,,,,,,,right,0.749,0,121,121,43,1,közhely,KT108,nő,2001,13,2021-05-13_08h13.37.390,ranlexdec,2020.2.5,Win32,60
,,,,,,,,,,,,left,0.766,0,122,122,50,1,csenyei,KT108,nő,2001,13,2021-05-13_08h13.37.390,ranlexdec,2020.2.5,Win32,60
,,,,,,,,,,,,right,1.881,0,123,123,62,1,bizmut,KT108,nő,2001,13,2021-05-13_08h13.37.390,ranlexdec,2020.2.5,Win32,60
,,,,,,,,,,,,right,0.914,0,124,124,148,1,mellényzseb,KT108,nő,2001,13,2021-05-13_08h13.37.390,ranlexdec,2020.2.5,Win32,60
,,,,,,,,,,,,right,0.6,0,125,125,61,1,régész,KT108,nő,2001,13,2021-05-13_08h13.37.390,ranlexdec,2020.2.5,Win32,60
,,,,,,,,,,,,right,0.698,0,126,126,246,1,beton,KT108,nő,2001,13,2021-05-13_08h13.37.390,ranlexdec,2020.2.5,Win32,60
,,,,,,,,,,,,right,0.848,0,127,127,206,1,horizont,KT108,nő,2001,13,2021-05-13_08h13.37.390,ranlexdec,2020.2.5,Win32,60
,,,,,,,,,,,,left,0.649,0,128,128,167,1,vabank,KT108,nő,2001,13,2021-05-13_08h13.37.390,ranlexdec,2020.2.5,Win32,60
,,,,,,,,,,,,left,0.867,0,129,129,30,1,dádá,KT108,nő,2001,13,2021-05-13_08h13.37.390,ranlexdec,2020.2.5,Win32,60
,,,,,,,,,,,,left,1.08,0,130,130,17,1,magmatit,KT108,nő,2001,13,2021-05-13_08h13.37.390,ranlexdec,2020.2.5,Win32,60
,,,,,,,,,,,,right,0.952,0,131,131,80,1,darab,KT108,nő,2001,13,2021-05-13_08h13.37.390,ranlexdec,2020.2.5,Win32,60
,,,,,,,,,,,,left,0.799,0,132,132,156,1,lazúroz,KT108,nő,2001,13,2021-05-13_08h13.37.390,ranlexdec,2020.2.5,Win32,60
,,,,,,,,,,,,right,0.933,0,133,133,120,1,komál,KT108,nő,2001,13,2021-05-13_08h13.37.390,ranlexdec,2020.2.5,Win32,60
,,,,,,,,,,,,right,0.715,0,134,134,161,1,példakép,KT108,nő,2001,13,2021-05-13_08h13.37.390,ranlexdec,2020.2.5,Win32,60
,,,,,,,,,,,,left,0.788,0,135,135,49,1,ernyak,KT108,nő,2001,13,2021-05-13_08h13.37.390,ranlexdec,2020.2.5,Win32,60
,,,,,,,,,,,,right,0.782,0,136,136,73,1,olaj,KT108,nő,2001,13,2021-05-13_08h13.37.390,ranlexdec,2020.2.5,Win32,60
,,,,,,,,,,,,right,0.651,0,137,137,25,1,reform,KT108,nő,2001,13,2021-05-13_08h13.37.390,ranlexdec,2020.2.5,Win32,60
,,,,,,,,,,,,right,0.898,0,138,138,147,1,referál,KT108,nő,2001,13,2021-05-13_08h13.37.390,ranlexdec,2020.2.5,Win32,60
,,,,,,,,,,,,right,0.717,0,139,139,230,1,délceg,KT108,nő,2001,13,2021-05-13_08h13.37.390,ranlexdec,2020.2.5,Win32,60
,,,,,,,,,,,,left,0.847,0,140,140,155,1,megpadék,KT108,nő,2001,13,2021-05-13_08h13.37.390,ranlexdec,2020.2.5,Win32,60
,,,,,,,,,,,,right,0.896,0,141,141,182,1,nagyszámú,KT108,nő,2001,13,2021-05-13_08h13.37.390,ranlexdec,2020.2.5,Win32,60
,,,,,,,,,,,,right,0.865,0,142,142,221,1,törődik,KT108,nő,2001,13,2021-05-13_08h13.37.390,ranlexdec,2020.2.5,Win32,60
,,,,,,,,,,,,left,1.865,0,143,143,217,1,ifjít,KT108,nő,2001,13,2021-05-13_08h13.37.390,ranlexdec,2020.2.5,Win32,60
,,,,,,,,,,,,right,0.952,0,144,144,57,1,lejmol,KT108,nő,2001,13,2021-05-13_08h13.37.390,ranlexdec,2020.2.5,Win32,60
,,,,,,,,,,,,right,0.699,0,145,145,165,1,lépték,KT108,nő,2001,13,2021-05-13_08h13.37.390,ranlexdec,2020.2.5,Win32,60
,,,,,,,,,,,,left,0.749,0,146,146,29,1,novagár,KT108,nő,2001,13,2021-05-13_08h13.37.390,ranlexdec,2020.2.5,Win32,60
,,,,,,,,,,,,right,0.769,0,147,147,99,1,sárgaréz,KT108,nő,2001,13,2021-05-13_08h13.37.390,ranlexdec,2020.2.5,Win32,60
,,,,,,,,,,,,right,0.83,0,148,148,6,1,csüggeszt,KT108,nő,2001,13,2021-05-13_08h13.37.390,ranlexdec,2020.2.5,Win32,60
,,,,,,,,,,,,right,1.098,0,149,149,174,1,cianid,KT108,nő,2001,13,2021-05-13_08h13.37.390,ranlexdec,2020.2.5,Win32,60
,,,,,,,,,,,,right,0.581,0,150,150,132,1,hatalom,KT108,nő,2001,13,2021-05-13_08h13.37.390,ranlexdec,2020.2.5,Win32,60
,,,,,,,,,,,,right,1.022,0,151,151,115,1,fajansz,KT108,nő,2001,13,2021-05-13_08h13.37.390,ranlexdec,2020.2.5,Win32,60
,,,,,,,,,,,,right,1.015,0,152,152,146,1,kondenzcsík,KT108,nő,2001,13,2021-05-13_08h13.37.390,ranlexdec,2020.2.5,Win32,60
,,,,,,,,,,,,left,0.948,0,153,153,191,1,hitódó,KT108,nő,2001,13,2021-05-13_08h13.37.390,ranlexdec,2020.2.5,Win32,60
,,,,,,,,,,,,left,1.431,0,154,154,52,1,kunyai,KT108,nő,2001,13,2021-05-13_08h13.37.390,ranlexdec,2020.2.5,Win32,60
,,,,,,,,,,,,right,0.767,0,155,155,54,1,fürkész,KT108,nő,2001,13,2021-05-13_08h13.37.390,ranlexdec,2020.2.5,Win32,60
,,,,,,,,,,,,left,1.041,0,156,156,83,1,vonzum,KT108,nő,2001,13,2021-05-13_08h13.37.390,ranlexdec,2020.2.5,Win32,60
,,,,,,,,,,,,right,1.231,0,157,157,202,1,abszint,KT108,nő,2001,13,2021-05-13_08h13.37.390,ranlexdec,2020.2.5,Win32,60
,,,,,,,,,,,,right,0.634,0,158,158,55,1,látszik,KT108,nő,2001,13,2021-05-13_08h13.37.390,ranlexdec,2020.2.5,Win32,60
,,,,,,,,,,,,right,0.627,0,159,159,56,1,kanalaz,KT108,nő,2001,13,2021-05-13_08h13.37.390,ranlexdec,2020.2.5,Win32,60
,,,,,,,,,,,,right,0.565,0,160,160,144,1,rövid,KT108,nő,2001,13,2021-05-13_08h13.37.390,ranlexdec,2020.2.5,Win32,60
,,,,,,,,,,,,right,1.133,0,161,161,135,1,ion,KT108,nő,2001,13,2021-05-13_08h13.37.390,ranlexdec,2020.2.5,Win32,60
,,,,,,,,,,,,right,1.181,0,162,162,68,1,kitin,KT108,nő,2001,13,2021-05-13_08h13.37.390,ranlexdec,2020.2.5,Win32,60
,,,,,,,,,,,,left,0.931,0,163,163,229,1,lemesség,KT108,nő,2001,13,2021-05-13_08h13.37.390,ranlexdec,2020.2.5,Win32,60
,,,,,,,,,,,,left,0.783,0,164,164,137,1,aragas,KT108,nő,2001,13,2021-05-13_08h13.37.390,ranlexdec,2020.2.5,Win32,60
,,,,,,,,,,,,left,0.715,0,165,165,234,1,fertilis,KT108,nő,2001,13,2021-05-13_08h13.37.390,ranlexdec,2020.2.5,Win32,60
,,,,,,,,,,,,right,0.702,0,166,166,194,1,végbél,KT108,nő,2001,13,2021-05-13_08h13.37.390,ranlexdec,2020.2.5,Win32,60
,,,,,,,,,,,,right,2.082,0,167,167,168,1,grafikon,KT108,nő,2001,13,2021-05-13_08h13.37.390,ranlexdec,2020.2.5,Win32,60
,,,,,,,,,,,,right,0.581,0,168,168,201,1,szempont,KT108,nő,2001,13,2021-05-13_08h13.37.390,ranlexdec,2020.2.5,Win32,60
,,,,,,,,,,,,right,0.898,0,169,169,222,1,nyersarany,KT108,nő,2001,13,2021-05-13_08h13.37.390,ranlexdec,2020.2.5,Win32,60
,,,,,,,,,,,,right,0.517,0,170,170,208,1,lélek,KT108,nő,2001,13,2021-05-13_08h13.37.390,ranlexdec,2020.2.5,Win32,60
,,,,,,,,,,,,right,0.93,0,171,171,211,1,tábornagy,KT108,nő,2001,13,2021-05-13_08h13.37.390,ranlexdec,2020.2.5,Win32,60
,,,,,,,,,,,,right,0.598,0,172,172,188,1,sugár,KT108,nő,2001,13,2021-05-13_08h13.37.390,ranlexdec,2020.2.5,Win32,60
,,,,,,,,,,,,left,0.8,0,173,173,143,1,rojtoz,KT108,nő,2001,13,2021-05-13_08h13.37.390,ranlexdec,2020.2.5,Win32,60
,,,,,,,,,,,,right,0.665,0,174,174,10,1,nárcisz,KT108,nő,2001,13,2021-05-13_08h13.37.390,ranlexdec,2020.2.5,Win32,60
,,,,,,,,,,,,right,0.565,0,175,175,34,1,csengettyű,KT108,nő,2001,13,2021-05-13_08h13.37.390,ranlexdec,2020.2.5,Win32,60
,,,,,,,,,,,,right,0.732,0,176,176,151,1,komplex,KT108,nő,2001,13,2021-05-13_08h13.37.390,ranlexdec,2020.2.5,Win32,60
,,,,,,,,,,,,right,0.632,0,177,177,88,1,pohár,KT108,nő,2001,13,2021-05-13_08h13.37.390,ranlexdec,2020.2.5,Win32,60
,,,,,,,,,,,,right,0.814,0,178,178,22,1,arzénsav,KT108,nő,2001,13,2021-05-13_08h13.37.390,ranlexdec,2020.2.5,Win32,60
,,,,,,,,,,,,right,0.799,0,179,179,244,1,kislány,KT108,nő,2001,13,2021-05-13_08h13.37.390,ranlexdec,2020.2.5,Win32,60
,,,,,,,,,,,,right,0.653,0,180,180,178,1,sziszeg,KT108,nő,2001,13,2021-05-13_08h13.37.390,ranlexdec,2020.2.5,Win32,60
,,,,,,,,,,,,left,0.9,0,181,181,84,1,kúpol,KT108,nő,2001,13,2021-05-13_08h13.37.390,ranlexdec,2020.2.5,Win32,60
,,,,,,,,,,,,left,2.384,0,182,182,76,1,jegedény,KT108,nő,2001,13,2021-05-13_08h13.37.390,ranlexdec,2020.2.5,Win32,60
,,,,,,,,,,,,left,1.332,0,183,183,35,1,türemlik,KT108,nő,2001,13,2021-05-13_08h13.37.390,ranlexdec,2020.2.5,Win32,60
,,,,,,,,,,,,right,0.849,0,184,184,248,1,örmény,KT108,nő,2001,13,2021-05-13_08h13.37.390,ranlexdec,2020.2.5,Win32,60
,,,,,,,,,,,,right,0.816,0,185,185,21,1,heveny,KT108,nő,2001,13,2021-05-13_08h13.37.390,ranlexdec,2020.2.5,Win32,60
,,,,,,,,,,,,right,0.667,0,186,186,19,1,tangózik,KT108,nő,2001,13,2021-05-13_08h13.37.390,ranlexdec,2020.2.5,Win32,60
,,,,,,,,,,,,right,0.598,0,187,187,86,1,jármű,KT108,nő,2001,13,2021-05-13_08h13.37.390,ranlexdec,2020.2.5,Win32,60
,,,,,,,,,,,,left,0.898,0,188,188,204,1,kocskesi,KT108,nő,2001,13,2021-05-13_08h13.37.390,ranlexdec,2020.2.5,Win32,60
,,,,,,,,,,,,right,0.679,0,189,189,12,1,gyapot,KT108,nő,2001,13,2021-05-13_08h13.37.390,ranlexdec,2020.2.5,Win32,60
,,,,,,,,,,,,left,0.984,0,190,190,106,1,lalláz,KT108,nő,2001,13,2021-05-13_08h13.37.390,ranlexdec,2020.2.5,Win32,60
,,,,,,,,,,,,left,1.331,0,191,191,127,1,rozintem,KT108,nő,2001,13,2021-05-13_08h13.37.390,ranlexdec,2020.2.5,Win32,60
,,,,,,,,,,,,right,0.732,0,192,192,98,1,mítosz,KT108,nő,2001,13,2021-05-13_08h13.37.390,ranlexdec,2020.2.5,Win32,60
,,,,,,,,,,,,right,1.297,0,193,193,63,1,viszkózus,KT108,nő,2001,13,2021-05-13_08h13.37.390,ranlexdec,2020.2.5,Win32,60
,,,,,,,,,,,,right,0.582,0,194,194,0,1,irány,KT108,nő,2001,13,2021-05-13_08h13.37.390,ranlexdec,2020.2.5,Win32,60
,,,,,,,,,,,,left,0.864,0,195,195,233,1,templomoz,KT108,nő,2001,13,2021-05-13_08h13.37.390,ranlexdec,2020.2.5,Win32,60
,,,,,,,,,,,,right,1.282,0,196,196,243,1,dipeptid,KT108,nő,2001,13,2021-05-13_08h13.37.390,ranlexdec,2020.2.5,Win32,60
,,,,,,,,,,,,left,1.413,0,197,197,142,1,storítő,KT108,nő,2001,13,2021-05-13_08h13.37.390,ranlexdec,2020.2.5,Win32,60
,,,,,,,,,,,,left,0.949,0,198,198,179,1,töredék,KT108,nő,2001,13,2021-05-13_08h13.37.390,ranlexdec,2020.2.5,Win32,60
,,,,,,,,,,,,right,1.4,0,199,199,128,1,csüggedez,KT108,nő,2001,13,2021-05-13_08h13.37.390,ranlexdec,2020.2.5,Win32,60
,,,,,,,,,,,,right,1.748,0,200,200,20,1,század,KT108,nő,2001,13,2021-05-13_08h13.37.390,ranlexdec,2020.2.5,Win32,60
,,,,,,,,,,,,right,0.618,0,201,201,124,1,alkalom,KT108,nő,2001,13,2021-05-13_08h13.37.390,ranlexdec,2020.2.5,Win32,60
,,,,,,,,,,,,right,0.582,0,202,202,176,1,bélyeg,KT108,nő,2001,13,2021-05-13_08h13.37.390,ranlexdec,2020.2.5,Win32,60
,,,,,,,,,,,,right,0.402,0,203,203,200,1,biliárd,KT108,nő,2001,13,2021-05-13_08h13.37.390,ranlexdec,2020.2.5,Win32,60
,,,,,,,,,,,,right,1.083,0,204,204,159,1,elegy,KT108,nő,2001,13,2021-05-13_08h13.37.390,ranlexdec,2020.2.5,Win32,60
,,,,,,,,,,,,right,1.335,0,205,205,226,1,szalicil,KT108,nő,2001,13,2021-05-13_08h13.37.390,ranlexdec,2020.2.5,Win32,60
,,,,,,,,,,,,left,1.031,0,206,206,107,1,kelől,KT108,nő,2001,13,2021-05-13_08h13.37.390,ranlexdec,2020.2.5,Win32,60
,,,,,,,,,,,,right,0.72,0,207,207,89,1,szokik,KT108,nő,2001,13,2021-05-13_08h13.37.390,ranlexdec,2020.2.5,Win32,60
,,,,,,,,,,,,left,0.784,0,208,208,38,1,zomogyi,KT108,nő,2001,13,2021-05-13_08h13.37.390,ranlexdec,2020.2.5,Win32,60
,,,,,,,,,,,,left,1.798,0,209,209,87,1,forrpont,KT108,nő,2001,13,2021-05-13_08h13.37.390,ranlexdec,2020.2.5,Win32,60
,,,,,,,,,,,,left,0.88,0,210,210,181,1,dohorpák,KT108,nő,2001,13,2021-05-13_08h13.37.390,ranlexdec,2020.2.5,Win32,60
,,,,,,,,,,,,right,1.082,0,211,211,48,1,reagál,KT108,nő,2001,13,2021-05-13_08h13.37.390,ranlexdec,2020.2.5,Win32,60
,,,,,,,,,,,,right,0.848,0,212,212,59,1,ómagyar,KT108,nő,2001,13,2021-05-13_08h13.37.390,ranlexdec,2020.2.5,Win32,60
,,,,,,,,,,,,right,0.615,0,213,213,28,1,gazdag,KT108,nő,2001,13,2021-05-13_08h13.37.390,ranlexdec,2020.2.5,Win32,60
,,,,,,,,,,,,left,0.748,0,214,214,24,1,kosi,KT108,nő,2001,13,2021-05-13_08h13.37.390,ranlexdec,2020.2.5,Win32,60
,,,,,,,,,,,,left,0.966,0,215,215,212,1,farkasbab,KT108,nő,2001,13,2021-05-13_08h13.37.390,ranlexdec,2020.2.5,Win32,60
,,,,,,,,,,,,left,1.047,0,216,216,218,1,tortya,KT108,nő,2001,13,2021-05-13_08h13.37.390,ranlexdec,2020.2.5,Win32,60
,,,,,,,,,,,,left,0.832,0,217,217,113,1,piktogram,KT108,nő,2001,13,2021-05-13_08h13.37.390,ranlexdec,2020.2.5,Win32,60
,,,,,,,,,,,,right,1.381,0,218,218,236,1,csatázik,KT108,nő,2001,13,2021-05-13_08h13.37.390,ranlexdec,2020.2.5,Win32,60
,,,,,,,,,,,,right,1.383,0,219,219,150,1,orront,KT108,nő,2001,13,2021-05-13_08h13.37.390,ranlexdec,2020.2.5,Win32,60
,,,,,,,,,,,,right,0.569,0,220,220,78,1,törékeny,KT108,nő,2001,13,2021-05-13_08h13.37.390,ranlexdec,2020.2.5,Win32,60
,,,,,,,,,,,,right,1.165,0,221,221,44,1,ingváll,KT108,nő,2001,13,2021-05-13_08h13.37.390,ranlexdec,2020.2.5,Win32,60
,,,,,,,,,,,,left,1.166,0,222,222,199,1,ború,KT108,nő,2001,13,2021-05-13_08h13.37.390,ranlexdec,2020.2.5,Win32,60
,,,,,,,,,,,,right,1.48,0,223,223,163,1,kollapszus,KT108,nő,2001,13,2021-05-13_08h13.37.390,ranlexdec,2020.2.5,Win32,60
,,,,,,,,,,,,left,0.969,0,224,224,224,1,truccol,KT108,nő,2001,13,2021-05-13_08h13.37.390,ranlexdec,2020.2.5,Win32,60
,,,,,,,,,,,,left,0.981,0,225,225,125,1,úszamos,KT108,nő,2001,13,2021-05-13_08h13.37.390,ranlexdec,2020.2.5,Win32,60
,,,,,,,,,,,,left,0.831,0,226,226,108,1,konyrúd,KT108,nő,2001,13,2021-05-13_08h13.37.390,ranlexdec,2020.2.5,Win32,60
,,,,,,,,,,,,left,1.032,0,227,227,93,1,kilukát,KT108,nő,2001,13,2021-05-13_08h13.37.390,ranlexdec,2020.2.5,Win32,60
,,,,,,,,,,,,left,0.931,0,228,228,75,1,karnogó,KT108,nő,2001,13,2021-05-13_08h13.37.390,ranlexdec,2020.2.5,Win32,60
,,,,,,,,,,,,left,1.751,0,229,229,198,1,lublika,KT108,nő,2001,13,2021-05-13_08h13.37.390,ranlexdec,2020.2.5,Win32,60
,,,,,,,,,,,,right,1.281,0,230,230,175,1,szilikát,KT108,nő,2001,13,2021-05-13_08h13.37.390,ranlexdec,2020.2.5,Win32,60
,,,,,,,,,,,,left,0.747,0,231,231,23,1,szelégül,KT108,nő,2001,13,2021-05-13_08h13.37.390,ranlexdec,2020.2.5,Win32,60
,,,,,,,,,,,,left,1.335,0,232,232,219,1,szimboló,KT108,nő,2001,13,2021-05-13_08h13.37.390,ranlexdec,2020.2.5,Win32,60
,,,,,,,,,,,,left,1.332,0,233,233,225,1,bajadér,KT108,nő,2001,13,2021-05-13_08h13.37.390,ranlexdec,2020.2.5,Win32,60
,,,,,,,,,,,,right,0.863,0,234,234,74,1,püffeszt,KT108,nő,2001,13,2021-05-13_08h13.37.390,ranlexdec,2020.2.5,Win32,60
,,,,,,,,,,,,left,0.749,0,235,235,36,1,tröshet,KT108,nő,2001,13,2021-05-13_08h13.37.390,ranlexdec,2020.2.5,Win32,60
,,,,,,,,,,,,right,0.647,0,236,236,114,1,tartalom,KT108,nő,2001,13,2021-05-13_08h13.37.390,ranlexdec,2020.2.5,Win32,60
,,,,,,,,,,,,right,0.728,0,237,237,110,1,időszak,KT108,nő,2001,13,2021-05-13_08h13.37.390,ranlexdec,2020.2.5,Win32,60
,,,,,,,,,,,,right,0.55,0,238,238,126,1,rejtőzik,KT108,nő,2001,13,2021-05-13_08h13.37.390,ranlexdec,2020.2.5,Win32,60
,,,,,,,,,,,,left,0.665,0,239,239,77,1,egant,KT108,nő,2001,13,2021-05-13_08h13.37.390,ranlexdec,2020.2.5,Win32,60
,,,,,,,,,,,,right,0.598,0,240,240,152,1,rakódik,KT108,nő,2001,13,2021-05-13_08h13.37.390,ranlexdec,2020.2.5,Win32,60
,,,,,,,,,,,,left,1.303,0,241,241,117,1,ószeven,KT108,nő,2001,13,2021-05-13_08h13.37.390,ranlexdec,2020.2.5,Win32,60
,,,,,,,,,,,,right,0.754,0,242,242,232,1,tropikus,KT108,nő,2001,13,2021-05-13_08h13.37.390,ranlexdec,2020.2.5,Win32,60
,,,,,,,,,,,,left,0.715,0,243,243,141,1,hider,KT108,nő,2001,13,2021-05-13_08h13.37.390,ranlexdec,2020.2.5,Win32,60
,,,,,,,,,,,,right,0.55,0,244,244,245,1,ellenfél,KT108,nő,2001,13,2021-05-13_08h13.37.390,ranlexdec,2020.2.5,Win32,60
,,,,,,,,,,,,left,0.985,0,245,245,118,1,libling,KT108,nő,2001,13,2021-05-13_08h13.37.390,ranlexdec,2020.2.5,Win32,60
,,,,,,,,,,,,right,1.635,0,246,246,183,1,színpad,KT108,nő,2001,13,2021-05-13_08h13.37.390,ranlexdec,2020.2.5,Win32,60
,,,,,,,,,,,,left,0.749,0,247,247,216,1,svábtök,KT108,nő,2001,13,2021-05-13_08h13.37.390,ranlexdec,2020.2.5,Win32,60
,,,,,,,,,,,,left,1.182,0,248,248,70,1,lakotthely,KT108,nő,2001,13,2021-05-13_08h13.37.390,ranlexdec,2020.2.5,Win32,60
,,,,,,,,,,,,left,1.314,0,249,249,131,1,vetézmés,KT108,nő,2001,13,2021-05-13_08h13.37.390,ranlexdec,2020.2.5,Win32,60
