ready2_2.keys,ready2_2.rt,ready2.keys,ready2.rt,key_resp.keys,key_resp.rt,key_resp_3.keys,key_resp_3.rt,key_resp_2.keys,key_resp_2.rt,ready3.keys,ready3.rt,resp.keys,resp.rt,withinBlock.thisRepN,withinBlock.thisTrialN,withinBlock.thisN,withinBlock.thisIndex,withinBlock.ran,word,Azonosító,Az Ön neme,Születési éve,Hány évet töltött az iskolapadban (egyetemet is beleértve),date,expName,psychopyVersion,OS,frameRate
right,20.824,right,24.011,right,0.602,left,0.472,left,0.908,right,14.026,left,0.699,0,0,0,95,1,skubizik,KT117,nő,2001,,2021-05-13_09h08.31.750,ranlexdec,2020.2.5,MacIntel,60
,,,,,,,,,,,,left,1.19,0,1,1,42,1,összalaj,KT117,nő,2001,,2021-05-13_09h08.31.750,ranlexdec,2020.2.5,MacIntel,60
,,,,,,,,,,,,right,0.89,0,2,2,105,1,tököl,KT117,nő,2001,,2021-05-13_09h08.31.750,ranlexdec,2020.2.5,MacIntel,60
,,,,,,,,,,,,right,0.717,0,3,3,124,1,alkalom,KT117,nő,2001,,2021-05-13_09h08.31.750,ranlexdec,2020.2.5,MacIntel,60
,,,,,,,,,,,,right,0.787,0,4,4,140,1,diktátor,KT117,nő,2001,,2021-05-13_09h08.31.750,ranlexdec,2020.2.5,MacIntel,60
,,,,,,,,,,,,right,0.89,0,5,5,149,1,anorák,KT117,nő,2001,,2021-05-13_09h08.31.750,ranlexdec,2020.2.5,MacIntel,60
,,,,,,,,,,,,left,0.992,0,6,6,115,1,fajansz,KT117,nő,2001,,2021-05-13_09h08.31.750,ranlexdec,2020.2.5,MacIntel,60
,,,,,,,,,,,,left,1.122,0,7,7,51,1,bajuszfű,KT117,nő,2001,,2021-05-13_09h08.31.750,ranlexdec,2020.2.5,MacIntel,60
,,,,,,,,,,,,left,1.599,0,8,8,190,1,rámáz,KT117,nő,2001,,2021-05-13_09h08.31.750,ranlexdec,2020.2.5,MacIntel,60
,,,,,,,,,,,,right,0.95,0,9,9,236,1,csatázik,KT117,nő,2001,,2021-05-13_09h08.31.750,ranlexdec,2020.2.5,MacIntel,60
,,,,,,,,,,,,left,0.988,0,10,10,47,1,döföl,KT117,nő,2001,,2021-05-13_09h08.31.750,ranlexdec,2020.2.5,MacIntel,60
,,,,,,,,,,,,left,0.868,0,11,11,94,1,rotor,KT117,nő,2001,,2021-05-13_09h08.31.750,ranlexdec,2020.2.5,MacIntel,60
,,,,,,,,,,,,right,1.149,0,12,12,128,1,csüggedez,KT117,nő,2001,,2021-05-13_09h08.31.750,ranlexdec,2020.2.5,MacIntel,60
,,,,,,,,,,,,left,0.832,0,13,13,106,1,lalláz,KT117,nő,2001,,2021-05-13_09h08.31.750,ranlexdec,2020.2.5,MacIntel,60
,,,,,,,,,,,,right,1.963,0,14,14,158,1,hidroxid,KT117,nő,2001,,2021-05-13_09h08.31.750,ranlexdec,2020.2.5,MacIntel,60
,,,,,,,,,,,,left,1.055,0,15,15,226,1,szalicil,KT117,nő,2001,,2021-05-13_09h08.31.750,ranlexdec,2020.2.5,MacIntel,60
,,,,,,,,,,,,left,1.235,0,16,16,137,1,aragas,KT117,nő,2001,,2021-05-13_09h08.31.750,ranlexdec,2020.2.5,MacIntel,60
,,,,,,,,,,,,left,2.217,0,17,17,242,1,rekvizit,KT117,nő,2001,,2021-05-13_09h08.31.750,ranlexdec,2020.2.5,MacIntel,60
,,,,,,,,,,,,right,0.693,0,18,18,170,1,változik,KT117,nő,2001,,2021-05-13_09h08.31.750,ranlexdec,2020.2.5,MacIntel,60
,,,,,,,,,,,,right,0.797,0,19,19,130,1,derít,KT117,nő,2001,,2021-05-13_09h08.31.750,ranlexdec,2020.2.5,MacIntel,60
,,,,,,,,,,,,left,2.804,0,20,20,146,1,kondenzcsík,KT117,nő,2001,,2021-05-13_09h08.31.750,ranlexdec,2020.2.5,MacIntel,60
,,,,,,,,,,,,left,1.068,0,21,21,16,1,cséltás,KT117,nő,2001,,2021-05-13_09h08.31.750,ranlexdec,2020.2.5,MacIntel,60
,,,,,,,,,,,,right,1.615,0,22,22,248,1,örmény,KT117,nő,2001,,2021-05-13_09h08.31.750,ranlexdec,2020.2.5,MacIntel,60
,,,,,,,,,,,,right,0.749,0,23,23,43,1,közhely,KT117,nő,2001,,2021-05-13_09h08.31.750,ranlexdec,2020.2.5,MacIntel,60
,,,,,,,,,,,,left,1.72,0,24,24,165,1,lépték,KT117,nő,2001,,2021-05-13_09h08.31.750,ranlexdec,2020.2.5,MacIntel,60
,,,,,,,,,,,,right,1.202,0,25,25,199,1,ború,KT117,nő,2001,,2021-05-13_09h08.31.750,ranlexdec,2020.2.5,MacIntel,60
,,,,,,,,,,,,right,2.405,0,26,26,180,1,adszorbens,KT117,nő,2001,,2021-05-13_09h08.31.750,ranlexdec,2020.2.5,MacIntel,60
,,,,,,,,,,,,right,1.154,0,27,27,39,1,könnyelmű,KT117,nő,2001,,2021-05-13_09h08.31.750,ranlexdec,2020.2.5,MacIntel,60
,,,,,,,,,,,,right,0.93,0,28,28,168,1,grafikon,KT117,nő,2001,,2021-05-13_09h08.31.750,ranlexdec,2020.2.5,MacIntel,60
,,,,,,,,,,,,left,1.033,0,29,29,83,1,vonzum,KT117,nő,2001,,2021-05-13_09h08.31.750,ranlexdec,2020.2.5,MacIntel,60
,,,,,,,,,,,,left,0.983,0,30,30,118,1,libling,KT117,nő,2001,,2021-05-13_09h08.31.750,ranlexdec,2020.2.5,MacIntel,60
,,,,,,,,,,,,right,1.131,0,31,31,247,1,ausztrál,KT117,nő,2001,,2021-05-13_09h08.31.750,ranlexdec,2020.2.5,MacIntel,60
,,,,,,,,,,,,right,1.549,0,32,32,200,1,biliárd,KT117,nő,2001,,2021-05-13_09h08.31.750,ranlexdec,2020.2.5,MacIntel,60
,,,,,,,,,,,,left,1.264,0,33,33,50,1,csenyei,KT117,nő,2001,,2021-05-13_09h08.31.750,ranlexdec,2020.2.5,MacIntel,60
,,,,,,,,,,,,left,0.873,0,34,34,40,1,diviz,KT117,nő,2001,,2021-05-13_09h08.31.750,ranlexdec,2020.2.5,MacIntel,60
,,,,,,,,,,,,left,1.04,0,35,35,205,1,mimézis,KT117,nő,2001,,2021-05-13_09h08.31.750,ranlexdec,2020.2.5,MacIntel,60
,,,,,,,,,,,,right,0.936,0,36,36,56,1,kanalaz,KT117,nő,2001,,2021-05-13_09h08.31.750,ranlexdec,2020.2.5,MacIntel,60
,,,,,,,,,,,,right,0.674,0,37,37,70,1,lakotthely,KT117,nő,2001,,2021-05-13_09h08.31.750,ranlexdec,2020.2.5,MacIntel,60
,,,,,,,,,,,,left,2.354,0,38,38,97,1,vésségi,KT117,nő,2001,,2021-05-13_09h08.31.750,ranlexdec,2020.2.5,MacIntel,60
,,,,,,,,,,,,right,1.499,0,39,39,101,1,nukleon,KT117,nő,2001,,2021-05-13_09h08.31.750,ranlexdec,2020.2.5,MacIntel,60
,,,,,,,,,,,,right,1.851,0,40,40,37,1,lukaszt,KT117,nő,2001,,2021-05-13_09h08.31.750,ranlexdec,2020.2.5,MacIntel,60
,,,,,,,,,,,,right,0.934,0,41,41,211,1,tábornagy,KT117,nő,2001,,2021-05-13_09h08.31.750,ranlexdec,2020.2.5,MacIntel,60
,,,,,,,,,,,,left,2.107,0,42,42,38,1,zomogyi,KT117,nő,2001,,2021-05-13_09h08.31.750,ranlexdec,2020.2.5,MacIntel,60
,,,,,,,,,,,,right,2.767,0,43,43,209,1,hidegház,KT117,nő,2001,,2021-05-13_09h08.31.750,ranlexdec,2020.2.5,MacIntel,60
,,,,,,,,,,,,left,1.165,0,44,44,150,1,orront,KT117,nő,2001,,2021-05-13_09h08.31.750,ranlexdec,2020.2.5,MacIntel,60
,,,,,,,,,,,,left,1.132,0,45,45,26,1,aurult,KT117,nő,2001,,2021-05-13_09h08.31.750,ranlexdec,2020.2.5,MacIntel,60
,,,,,,,,,,,,left,1.588,0,46,46,81,1,takorák,KT117,nő,2001,,2021-05-13_09h08.31.750,ranlexdec,2020.2.5,MacIntel,60
,,,,,,,,,,,,right,1.215,0,47,47,67,1,szegény,KT117,nő,2001,,2021-05-13_09h08.31.750,ranlexdec,2020.2.5,MacIntel,60
,,,,,,,,,,,,left,1.383,0,48,48,173,1,glosszáz,KT117,nő,2001,,2021-05-13_09h08.31.750,ranlexdec,2020.2.5,MacIntel,60
,,,,,,,,,,,,right,0.815,0,49,49,214,1,tenger,KT117,nő,2001,,2021-05-13_09h08.31.750,ranlexdec,2020.2.5,MacIntel,60
,,,,,,,,,,,,left,1.122,0,50,50,197,1,krakéler,KT117,nő,2001,,2021-05-13_09h08.31.750,ranlexdec,2020.2.5,MacIntel,60
,,,,,,,,,,,,right,0.866,0,51,51,92,1,lágyék,KT117,nő,2001,,2021-05-13_09h08.31.750,ranlexdec,2020.2.5,MacIntel,60
,,,,,,,,,,,,right,0.656,0,52,52,188,1,sugár,KT117,nő,2001,,2021-05-13_09h08.31.750,ranlexdec,2020.2.5,MacIntel,60
,,,,,,,,,,,,right,0.564,0,53,53,28,1,gazdag,KT117,nő,2001,,2021-05-13_09h08.31.750,ranlexdec,2020.2.5,MacIntel,60
,,,,,,,,,,,,right,0.82,0,54,54,187,1,testnedv,KT117,nő,2001,,2021-05-13_09h08.31.750,ranlexdec,2020.2.5,MacIntel,60
,,,,,,,,,,,,right,0.739,0,55,55,227,1,kötődik,KT117,nő,2001,,2021-05-13_09h08.31.750,ranlexdec,2020.2.5,MacIntel,60
,,,,,,,,,,,,right,0.589,0,56,56,176,1,bélyeg,KT117,nő,2001,,2021-05-13_09h08.31.750,ranlexdec,2020.2.5,MacIntel,60
,,,,,,,,,,,,left,1.271,0,57,57,27,1,sporthorgász,KT117,nő,2001,,2021-05-13_09h08.31.750,ranlexdec,2020.2.5,MacIntel,60
,,,,,,,,,,,,left,2.641,0,58,58,76,1,jegedény,KT117,nő,2001,,2021-05-13_09h08.31.750,ranlexdec,2020.2.5,MacIntel,60
,,,,,,,,,,,,left,1.183,0,59,59,3,1,tömzsa,KT117,nő,2001,,2021-05-13_09h08.31.750,ranlexdec,2020.2.5,MacIntel,60
,,,,,,,,,,,,right,4.416,0,60,60,63,1,viszkózus,KT117,nő,2001,,2021-05-13_09h08.31.750,ranlexdec,2020.2.5,MacIntel,60
,,,,,,,,,,,,left,0.857,0,61,61,77,1,egant,KT117,nő,2001,,2021-05-13_09h08.31.750,ranlexdec,2020.2.5,MacIntel,60
,,,,,,,,,,,,left,1.016,0,62,62,204,1,kocskesi,KT117,nő,2001,,2021-05-13_09h08.31.750,ranlexdec,2020.2.5,MacIntel,60
,,,,,,,,,,,,right,1.42,0,63,63,215,1,neoprén,KT117,nő,2001,,2021-05-13_09h08.31.750,ranlexdec,2020.2.5,MacIntel,60
,,,,,,,,,,,,right,0.702,0,64,64,61,1,régész,KT117,nő,2001,,2021-05-13_09h08.31.750,ranlexdec,2020.2.5,MacIntel,60
,,,,,,,,,,,,right,1.323,0,65,65,232,1,tropikus,KT117,nő,2001,,2021-05-13_09h08.31.750,ranlexdec,2020.2.5,MacIntel,60
,,,,,,,,,,,,left,1.606,0,66,66,142,1,storítő,KT117,nő,2001,,2021-05-13_09h08.31.750,ranlexdec,2020.2.5,MacIntel,60
,,,,,,,,,,,,left,2.188,0,67,67,111,1,koenzim,KT117,nő,2001,,2021-05-13_09h08.31.750,ranlexdec,2020.2.5,MacIntel,60
,,,,,,,,,,,,left,5.698,0,68,68,35,1,türemlik,KT117,nő,2001,,2021-05-13_09h08.31.750,ranlexdec,2020.2.5,MacIntel,60
,,,,,,,,,,,,right,0.817,0,69,69,201,1,szempont,KT117,nő,2001,,2021-05-13_09h08.31.750,ranlexdec,2020.2.5,MacIntel,60
,,,,,,,,,,,,right,0.523,0,70,70,104,1,dolog,KT117,nő,2001,,2021-05-13_09h08.31.750,ranlexdec,2020.2.5,MacIntel,60
,,,,,,,,,,,,right,3.307,0,71,71,0,1,irány,KT117,nő,2001,,2021-05-13_09h08.31.750,ranlexdec,2020.2.5,MacIntel,60
,,,,,,,,,,,,left,1.038,0,72,72,192,1,norvend,KT117,nő,2001,,2021-05-13_09h08.31.750,ranlexdec,2020.2.5,MacIntel,60
,,,,,,,,,,,,right,1.747,0,73,73,19,1,tangózik,KT117,nő,2001,,2021-05-13_09h08.31.750,ranlexdec,2020.2.5,MacIntel,60
,,,,,,,,,,,,right,1.981,0,74,74,99,1,sárgaréz,KT117,nő,2001,,2021-05-13_09h08.31.750,ranlexdec,2020.2.5,MacIntel,60
,,,,,,,,,,,,right,1.224,0,75,75,138,1,gyűjtemény,KT117,nő,2001,,2021-05-13_09h08.31.750,ranlexdec,2020.2.5,MacIntel,60
,,,,,,,,,,,,right,0.556,0,76,76,221,1,törődik,KT117,nő,2001,,2021-05-13_09h08.31.750,ranlexdec,2020.2.5,MacIntel,60
,,,,,,,,,,,,left,1.29,0,77,77,195,1,petél,KT117,nő,2001,,2021-05-13_09h08.31.750,ranlexdec,2020.2.5,MacIntel,60
,,,,,,,,,,,,right,0.586,0,78,78,169,1,komoly,KT117,nő,2001,,2021-05-13_09h08.31.750,ranlexdec,2020.2.5,MacIntel,60
,,,,,,,,,,,,left,0.956,0,79,79,49,1,ernyak,KT117,nő,2001,,2021-05-13_09h08.31.750,ranlexdec,2020.2.5,MacIntel,60
,,,,,,,,,,,,left,0.635,0,80,80,15,1,pauzál,KT117,nő,2001,,2021-05-13_09h08.31.750,ranlexdec,2020.2.5,MacIntel,60
,,,,,,,,,,,,right,0.666,0,81,81,9,1,hajlik,KT117,nő,2001,,2021-05-13_09h08.31.750,ranlexdec,2020.2.5,MacIntel,60
,,,,,,,,,,,,right,0.724,0,82,82,246,1,beton,KT117,nő,2001,,2021-05-13_09h08.31.750,ranlexdec,2020.2.5,MacIntel,60
,,,,,,,,,,,,right,0.949,0,83,83,210,1,karakter,KT117,nő,2001,,2021-05-13_09h08.31.750,ranlexdec,2020.2.5,MacIntel,60
,,,,,,,,,,,,right,2.372,0,84,84,32,1,genom,KT117,nő,2001,,2021-05-13_09h08.31.750,ranlexdec,2020.2.5,MacIntel,60
,,,,,,,,,,,,left,3.301,0,85,85,30,1,dádá,KT117,nő,2001,,2021-05-13_09h08.31.750,ranlexdec,2020.2.5,MacIntel,60
,,,,,,,,,,,,left,2.289,0,86,86,167,1,vabank,KT117,nő,2001,,2021-05-13_09h08.31.750,ranlexdec,2020.2.5,MacIntel,60
,,,,,,,,,,,,left,0.938,0,87,87,29,1,novagár,KT117,nő,2001,,2021-05-13_09h08.31.750,ranlexdec,2020.2.5,MacIntel,60
,,,,,,,,,,,,left,0.719,0,88,88,186,1,piláf,KT117,nő,2001,,2021-05-13_09h08.31.750,ranlexdec,2020.2.5,MacIntel,60
,,,,,,,,,,,,left,3.199,0,89,89,240,1,áradmány,KT117,nő,2001,,2021-05-13_09h08.31.750,ranlexdec,2020.2.5,MacIntel,60
,,,,,,,,,,,,right,0.673,0,90,90,55,1,látszik,KT117,nő,2001,,2021-05-13_09h08.31.750,ranlexdec,2020.2.5,MacIntel,60
,,,,,,,,,,,,right,0.601,0,91,91,100,1,balközép,KT117,nő,2001,,2021-05-13_09h08.31.750,ranlexdec,2020.2.5,MacIntel,60
,,,,,,,,,,,,left,2.131,0,92,92,156,1,lazúroz,KT117,nő,2001,,2021-05-13_09h08.31.750,ranlexdec,2020.2.5,MacIntel,60
,,,,,,,,,,,,right,1.933,0,93,93,22,1,arzénsav,KT117,nő,2001,,2021-05-13_09h08.31.750,ranlexdec,2020.2.5,MacIntel,60
,,,,,,,,,,,,right,0.665,0,94,94,154,1,keresztény,KT117,nő,2001,,2021-05-13_09h08.31.750,ranlexdec,2020.2.5,MacIntel,60
,,,,,,,,,,,,left,1.365,0,95,95,75,1,karnogó,KT117,nő,2001,,2021-05-13_09h08.31.750,ranlexdec,2020.2.5,MacIntel,60
,,,,,,,,,,,,left,1.281,0,96,96,1,1,csapdáz,KT117,nő,2001,,2021-05-13_09h08.31.750,ranlexdec,2020.2.5,MacIntel,60
,,,,,,,,,,,,left,1,0,97,97,119,1,cugehőr,KT117,nő,2001,,2021-05-13_09h08.31.750,ranlexdec,2020.2.5,MacIntel,60
,,,,,,,,,,,,left,1.324,0,98,98,131,1,vetézmés,KT117,nő,2001,,2021-05-13_09h08.31.750,ranlexdec,2020.2.5,MacIntel,60
,,,,,,,,,,,,right,1.584,0,99,99,202,1,abszint,KT117,nő,2001,,2021-05-13_09h08.31.750,ranlexdec,2020.2.5,MacIntel,60
,,,,,,,,,,,,right,1.301,0,100,100,161,1,példakép,KT117,nő,2001,,2021-05-13_09h08.31.750,ranlexdec,2020.2.5,MacIntel,60
,,,,,,,,,,,,right,0.786,0,101,101,185,1,gyülemlik,KT117,nő,2001,,2021-05-13_09h08.31.750,ranlexdec,2020.2.5,MacIntel,60
,,,,,,,,,,,,right,1.618,0,102,102,237,1,forgórész,KT117,nő,2001,,2021-05-13_09h08.31.750,ranlexdec,2020.2.5,MacIntel,60
,,,,,,,,,,,,right,0.589,0,103,103,245,1,ellenfél,KT117,nő,2001,,2021-05-13_09h08.31.750,ranlexdec,2020.2.5,MacIntel,60
,,,,,,,,,,,,left,1.238,0,104,104,112,1,méhezter,KT117,nő,2001,,2021-05-13_09h08.31.750,ranlexdec,2020.2.5,MacIntel,60
,,,,,,,,,,,,right,1.055,0,105,105,193,1,bacon,KT117,nő,2001,,2021-05-13_09h08.31.750,ranlexdec,2020.2.5,MacIntel,60
,,,,,,,,,,,,left,2.316,0,106,106,212,1,farkasbab,KT117,nő,2001,,2021-05-13_09h08.31.750,ranlexdec,2020.2.5,MacIntel,60
,,,,,,,,,,,,left,1.166,0,107,107,134,1,móringol,KT117,nő,2001,,2021-05-13_09h08.31.750,ranlexdec,2020.2.5,MacIntel,60
,,,,,,,,,,,,right,0.782,0,108,108,171,1,újgazdag,KT117,nő,2001,,2021-05-13_09h08.31.750,ranlexdec,2020.2.5,MacIntel,60
,,,,,,,,,,,,left,1.964,0,109,109,60,1,bárányfark,KT117,nő,2001,,2021-05-13_09h08.31.750,ranlexdec,2020.2.5,MacIntel,60
,,,,,,,,,,,,right,0.77,0,110,110,160,1,százalék,KT117,nő,2001,,2021-05-13_09h08.31.750,ranlexdec,2020.2.5,MacIntel,60
,,,,,,,,,,,,right,0.849,0,111,111,178,1,sziszeg,KT117,nő,2001,,2021-05-13_09h08.31.750,ranlexdec,2020.2.5,MacIntel,60
,,,,,,,,,,,,left,1.55,0,112,112,166,1,retálhit,KT117,nő,2001,,2021-05-13_09h08.31.750,ranlexdec,2020.2.5,MacIntel,60
,,,,,,,,,,,,right,2.535,0,113,113,163,1,kollapszus,KT117,nő,2001,,2021-05-13_09h08.31.750,ranlexdec,2020.2.5,MacIntel,60
,,,,,,,,,,,,left,0.897,0,114,114,107,1,kelől,KT117,nő,2001,,2021-05-13_09h08.31.750,ranlexdec,2020.2.5,MacIntel,60
,,,,,,,,,,,,right,0.781,0,115,115,182,1,nagyszámú,KT117,nő,2001,,2021-05-13_09h08.31.750,ranlexdec,2020.2.5,MacIntel,60
,,,,,,,,,,,,left,0.799,0,116,116,52,1,kunyai,KT117,nő,2001,,2021-05-13_09h08.31.750,ranlexdec,2020.2.5,MacIntel,60
,,,,,,,,,,,,right,0.622,0,117,117,177,1,pereg,KT117,nő,2001,,2021-05-13_09h08.31.750,ranlexdec,2020.2.5,MacIntel,60
,,,,,,,,,,,,left,1.237,0,118,118,68,1,kitin,KT117,nő,2001,,2021-05-13_09h08.31.750,ranlexdec,2020.2.5,MacIntel,60
,,,,,,,,,,,,right,0.674,0,119,119,126,1,rejtőzik,KT117,nő,2001,,2021-05-13_09h08.31.750,ranlexdec,2020.2.5,MacIntel,60
,,,,,,,,,,,,left,0.924,0,120,120,46,1,kurzív,KT117,nő,2001,,2021-05-13_09h08.31.750,ranlexdec,2020.2.5,MacIntel,60
,,,,,,,,,,,,left,1.139,0,121,121,139,1,vároló,KT117,nő,2001,,2021-05-13_09h08.31.750,ranlexdec,2020.2.5,MacIntel,60
,,,,,,,,,,,,left,1.401,0,122,122,218,1,tortya,KT117,nő,2001,,2021-05-13_09h08.31.750,ranlexdec,2020.2.5,MacIntel,60
,,,,,,,,,,,,right,0.666,0,123,123,86,1,jármű,KT117,nő,2001,,2021-05-13_09h08.31.750,ranlexdec,2020.2.5,MacIntel,60
,,,,,,,,,,,,left,0.87,0,124,124,65,1,infimum,KT117,nő,2001,,2021-05-13_09h08.31.750,ranlexdec,2020.2.5,MacIntel,60
,,,,,,,,,,,,left,0.701,0,125,125,141,1,hider,KT117,nő,2001,,2021-05-13_09h08.31.750,ranlexdec,2020.2.5,MacIntel,60
,,,,,,,,,,,,right,1.132,0,126,126,147,1,referál,KT117,nő,2001,,2021-05-13_09h08.31.750,ranlexdec,2020.2.5,MacIntel,60
,,,,,,,,,,,,left,1.064,0,127,127,127,1,rozintem,KT117,nő,2001,,2021-05-13_09h08.31.750,ranlexdec,2020.2.5,MacIntel,60
,,,,,,,,,,,,right,3.514,0,128,128,69,1,gerencsér,KT117,nő,2001,,2021-05-13_09h08.31.750,ranlexdec,2020.2.5,MacIntel,60
,,,,,,,,,,,,right,0.704,0,129,129,58,1,barát,KT117,nő,2001,,2021-05-13_09h08.31.750,ranlexdec,2020.2.5,MacIntel,60
,,,,,,,,,,,,left,1.933,0,130,130,164,1,kurzivál,KT117,nő,2001,,2021-05-13_09h08.31.750,ranlexdec,2020.2.5,MacIntel,60
,,,,,,,,,,,,right,1.774,0,131,131,235,1,transzplantál,KT117,nő,2001,,2021-05-13_09h08.31.750,ranlexdec,2020.2.5,MacIntel,60
,,,,,,,,,,,,left,0.839,0,132,132,71,1,extuál,KT117,nő,2001,,2021-05-13_09h08.31.750,ranlexdec,2020.2.5,MacIntel,60
,,,,,,,,,,,,left,1.328,0,133,133,96,1,alfél,KT117,nő,2001,,2021-05-13_09h08.31.750,ranlexdec,2020.2.5,MacIntel,60
,,,,,,,,,,,,left,1.366,0,134,134,5,1,retta,KT117,nő,2001,,2021-05-13_09h08.31.750,ranlexdec,2020.2.5,MacIntel,60
,,,,,,,,,,,,right,0.682,0,135,135,45,1,népszerű,KT117,nő,2001,,2021-05-13_09h08.31.750,ranlexdec,2020.2.5,MacIntel,60
,,,,,,,,,,,,left,1.1,0,136,136,191,1,hitódó,KT117,nő,2001,,2021-05-13_09h08.31.750,ranlexdec,2020.2.5,MacIntel,60
,,,,,,,,,,,,right,1.548,0,137,137,84,1,kúpol,KT117,nő,2001,,2021-05-13_09h08.31.750,ranlexdec,2020.2.5,MacIntel,60
,,,,,,,,,,,,left,1.433,0,138,138,57,1,lejmol,KT117,nő,2001,,2021-05-13_09h08.31.750,ranlexdec,2020.2.5,MacIntel,60
,,,,,,,,,,,,right,0.622,0,139,139,231,1,igény,KT117,nő,2001,,2021-05-13_09h08.31.750,ranlexdec,2020.2.5,MacIntel,60
,,,,,,,,,,,,left,0.817,0,140,140,4,1,viszonvád,KT117,nő,2001,,2021-05-13_09h08.31.750,ranlexdec,2020.2.5,MacIntel,60
,,,,,,,,,,,,right,1.206,0,141,141,64,1,hálózsák,KT117,nő,2001,,2021-05-13_09h08.31.750,ranlexdec,2020.2.5,MacIntel,60
,,,,,,,,,,,,right,0.771,0,142,142,228,1,tarol,KT117,nő,2001,,2021-05-13_09h08.31.750,ranlexdec,2020.2.5,MacIntel,60
,,,,,,,,,,,,left,0.988,0,143,143,2,1,gyásos,KT117,nő,2001,,2021-05-13_09h08.31.750,ranlexdec,2020.2.5,MacIntel,60
,,,,,,,,,,,,right,0.917,0,144,144,59,1,ómagyar,KT117,nő,2001,,2021-05-13_09h08.31.750,ranlexdec,2020.2.5,MacIntel,60
,,,,,,,,,,,,left,1.184,0,145,145,91,1,tajtásos,KT117,nő,2001,,2021-05-13_09h08.31.750,ranlexdec,2020.2.5,MacIntel,60
,,,,,,,,,,,,right,1.031,0,146,146,239,1,donhuán,KT117,nő,2001,,2021-05-13_09h08.31.750,ranlexdec,2020.2.5,MacIntel,60
,,,,,,,,,,,,right,0.614,0,147,147,25,1,reform,KT117,nő,2001,,2021-05-13_09h08.31.750,ranlexdec,2020.2.5,MacIntel,60
,,,,,,,,,,,,right,0.639,0,148,148,6,1,csüggeszt,KT117,nő,2001,,2021-05-13_09h08.31.750,ranlexdec,2020.2.5,MacIntel,60
,,,,,,,,,,,,left,2.09,0,149,149,181,1,dohorpák,KT117,nő,2001,,2021-05-13_09h08.31.750,ranlexdec,2020.2.5,MacIntel,60
,,,,,,,,,,,,left,1.02,0,150,150,217,1,ifjít,KT117,nő,2001,,2021-05-13_09h08.31.750,ranlexdec,2020.2.5,MacIntel,60
,,,,,,,,,,,,right,2.198,0,151,151,222,1,nyersarany,KT117,nő,2001,,2021-05-13_09h08.31.750,ranlexdec,2020.2.5,MacIntel,60
,,,,,,,,,,,,left,1.365,0,152,152,172,1,kettősfém,KT117,nő,2001,,2021-05-13_09h08.31.750,ranlexdec,2020.2.5,MacIntel,60
,,,,,,,,,,,,right,0.999,0,153,153,98,1,mítosz,KT117,nő,2001,,2021-05-13_09h08.31.750,ranlexdec,2020.2.5,MacIntel,60
,,,,,,,,,,,,right,0.674,0,154,154,48,1,reagál,KT117,nő,2001,,2021-05-13_09h08.31.750,ranlexdec,2020.2.5,MacIntel,60
,,,,,,,,,,,,right,1.532,0,155,155,120,1,komál,KT117,nő,2001,,2021-05-13_09h08.31.750,ranlexdec,2020.2.5,MacIntel,60
,,,,,,,,,,,,left,0.991,0,156,156,66,1,parkkói,KT117,nő,2001,,2021-05-13_09h08.31.750,ranlexdec,2020.2.5,MacIntel,60
,,,,,,,,,,,,left,0.819,0,157,157,203,1,abeti,KT117,nő,2001,,2021-05-13_09h08.31.750,ranlexdec,2020.2.5,MacIntel,60
,,,,,,,,,,,,right,4.806,0,158,158,7,1,űrlap,KT117,nő,2001,,2021-05-13_09h08.31.750,ranlexdec,2020.2.5,MacIntel,60
,,,,,,,,,,,,left,0.76,0,159,159,223,1,árstop,KT117,nő,2001,,2021-05-13_09h08.31.750,ranlexdec,2020.2.5,MacIntel,60
,,,,,,,,,,,,right,0.855,0,160,160,206,1,horizont,KT117,nő,2001,,2021-05-13_09h08.31.750,ranlexdec,2020.2.5,MacIntel,60
,,,,,,,,,,,,right,2.614,0,161,161,174,1,cianid,KT117,nő,2001,,2021-05-13_09h08.31.750,ranlexdec,2020.2.5,MacIntel,60
,,,,,,,,,,,,right,0.636,0,162,162,151,1,komplex,KT117,nő,2001,,2021-05-13_09h08.31.750,ranlexdec,2020.2.5,MacIntel,60
,,,,,,,,,,,,right,1.483,0,163,163,33,1,kalcium,KT117,nő,2001,,2021-05-13_09h08.31.750,ranlexdec,2020.2.5,MacIntel,60
,,,,,,,,,,,,right,0.548,0,164,164,179,1,töredék,KT117,nő,2001,,2021-05-13_09h08.31.750,ranlexdec,2020.2.5,MacIntel,60
,,,,,,,,,,,,left,0.84,0,165,165,155,1,megpadék,KT117,nő,2001,,2021-05-13_09h08.31.750,ranlexdec,2020.2.5,MacIntel,60
,,,,,,,,,,,,left,3.02,0,166,166,117,1,ószeven,KT117,nő,2001,,2021-05-13_09h08.31.750,ranlexdec,2020.2.5,MacIntel,60
,,,,,,,,,,,,left,0.632,0,167,167,230,1,délceg,KT117,nő,2001,,2021-05-13_09h08.31.750,ranlexdec,2020.2.5,MacIntel,60
,,,,,,,,,,,,right,2.97,0,168,168,194,1,végbél,KT117,nő,2001,,2021-05-13_09h08.31.750,ranlexdec,2020.2.5,MacIntel,60
,,,,,,,,,,,,right,1.153,0,169,169,114,1,tartalom,KT117,nő,2001,,2021-05-13_09h08.31.750,ranlexdec,2020.2.5,MacIntel,60
,,,,,,,,,,,,left,0.7,0,170,170,62,1,bizmut,KT117,nő,2001,,2021-05-13_09h08.31.750,ranlexdec,2020.2.5,MacIntel,60
,,,,,,,,,,,,right,0.941,0,171,171,233,1,templomoz,KT117,nő,2001,,2021-05-13_09h08.31.750,ranlexdec,2020.2.5,MacIntel,60
,,,,,,,,,,,,right,0.957,0,172,172,20,1,század,KT117,nő,2001,,2021-05-13_09h08.31.750,ranlexdec,2020.2.5,MacIntel,60
,,,,,,,,,,,,right,1.706,0,173,173,220,1,csontdarab,KT117,nő,2001,,2021-05-13_09h08.31.750,ranlexdec,2020.2.5,MacIntel,60
,,,,,,,,,,,,left,1.568,0,174,174,74,1,püffeszt,KT117,nő,2001,,2021-05-13_09h08.31.750,ranlexdec,2020.2.5,MacIntel,60
,,,,,,,,,,,,left,1.448,0,175,175,93,1,kilukát,KT117,nő,2001,,2021-05-13_09h08.31.750,ranlexdec,2020.2.5,MacIntel,60
,,,,,,,,,,,,left,1.509,0,176,176,198,1,lublika,KT117,nő,2001,,2021-05-13_09h08.31.750,ranlexdec,2020.2.5,MacIntel,60
,,,,,,,,,,,,left,0.922,0,177,177,243,1,dipeptid,KT117,nő,2001,,2021-05-13_09h08.31.750,ranlexdec,2020.2.5,MacIntel,60
,,,,,,,,,,,,right,0.738,0,178,178,88,1,pohár,KT117,nő,2001,,2021-05-13_09h08.31.750,ranlexdec,2020.2.5,MacIntel,60
,,,,,,,,,,,,right,1.471,0,179,179,238,1,bolgár,KT117,nő,2001,,2021-05-13_09h08.31.750,ranlexdec,2020.2.5,MacIntel,60
,,,,,,,,,,,,right,0.641,0,180,180,8,1,kulcscsont,KT117,nő,2001,,2021-05-13_09h08.31.750,ranlexdec,2020.2.5,MacIntel,60
,,,,,,,,,,,,left,1.337,0,181,181,103,1,szabotró,KT117,nő,2001,,2021-05-13_09h08.31.750,ranlexdec,2020.2.5,MacIntel,60
,,,,,,,,,,,,right,0.715,0,182,182,244,1,kislány,KT117,nő,2001,,2021-05-13_09h08.31.750,ranlexdec,2020.2.5,MacIntel,60
,,,,,,,,,,,,right,0.857,0,183,183,113,1,piktogram,KT117,nő,2001,,2021-05-13_09h08.31.750,ranlexdec,2020.2.5,MacIntel,60
,,,,,,,,,,,,right,0.881,0,184,184,184,1,profit,KT117,nő,2001,,2021-05-13_09h08.31.750,ranlexdec,2020.2.5,MacIntel,60
,,,,,,,,,,,,left,0.881,0,185,185,143,1,rojtoz,KT117,nő,2001,,2021-05-13_09h08.31.750,ranlexdec,2020.2.5,MacIntel,60
,,,,,,,,,,,,left,2.119,0,186,186,153,1,kontrapunkt,KT117,nő,2001,,2021-05-13_09h08.31.750,ranlexdec,2020.2.5,MacIntel,60
,,,,,,,,,,,,right,0.734,0,187,187,41,1,nagybeteg,KT117,nő,2001,,2021-05-13_09h08.31.750,ranlexdec,2020.2.5,MacIntel,60
,,,,,,,,,,,,right,1.673,0,188,188,54,1,fürkész,KT117,nő,2001,,2021-05-13_09h08.31.750,ranlexdec,2020.2.5,MacIntel,60
,,,,,,,,,,,,left,0.915,0,189,189,145,1,kurtít,KT117,nő,2001,,2021-05-13_09h08.31.750,ranlexdec,2020.2.5,MacIntel,60
,,,,,,,,,,,,left,1.066,0,190,190,17,1,magmatit,KT117,nő,2001,,2021-05-13_09h08.31.750,ranlexdec,2020.2.5,MacIntel,60
,,,,,,,,,,,,right,0.79,0,191,191,90,1,orális,KT117,nő,2001,,2021-05-13_09h08.31.750,ranlexdec,2020.2.5,MacIntel,60
,,,,,,,,,,,,right,0.584,0,192,192,144,1,rövid,KT117,nő,2001,,2021-05-13_09h08.31.750,ranlexdec,2020.2.5,MacIntel,60
,,,,,,,,,,,,right,0.549,0,193,193,78,1,törékeny,KT117,nő,2001,,2021-05-13_09h08.31.750,ranlexdec,2020.2.5,MacIntel,60
,,,,,,,,,,,,left,0.853,0,194,194,44,1,ingváll,KT117,nő,2001,,2021-05-13_09h08.31.750,ranlexdec,2020.2.5,MacIntel,60
,,,,,,,,,,,,left,1.288,0,195,195,224,1,truccol,KT117,nő,2001,,2021-05-13_09h08.31.750,ranlexdec,2020.2.5,MacIntel,60
,,,,,,,,,,,,right,0.688,0,196,196,196,1,dolgozik,KT117,nő,2001,,2021-05-13_09h08.31.750,ranlexdec,2020.2.5,MacIntel,60
,,,,,,,,,,,,left,1.934,0,197,197,136,1,rücsök,KT117,nő,2001,,2021-05-13_09h08.31.750,ranlexdec,2020.2.5,MacIntel,60
,,,,,,,,,,,,right,1.338,0,198,198,189,1,konverzál,KT117,nő,2001,,2021-05-13_09h08.31.750,ranlexdec,2020.2.5,MacIntel,60
,,,,,,,,,,,,left,2.822,0,199,199,133,1,hübrisz,KT117,nő,2001,,2021-05-13_09h08.31.750,ranlexdec,2020.2.5,MacIntel,60
,,,,,,,,,,,,left,1.431,0,200,200,13,1,törköly,KT117,nő,2001,,2021-05-13_09h08.31.750,ranlexdec,2020.2.5,MacIntel,60
,,,,,,,,,,,,right,0.69,0,201,201,183,1,színpad,KT117,nő,2001,,2021-05-13_09h08.31.750,ranlexdec,2020.2.5,MacIntel,60
,,,,,,,,,,,,left,1.17,0,202,202,157,1,káder,KT117,nő,2001,,2021-05-13_09h08.31.750,ranlexdec,2020.2.5,MacIntel,60
,,,,,,,,,,,,right,0.654,0,203,203,122,1,égitest,KT117,nő,2001,,2021-05-13_09h08.31.750,ranlexdec,2020.2.5,MacIntel,60
,,,,,,,,,,,,right,0.573,0,204,204,79,1,extrém,KT117,nő,2001,,2021-05-13_09h08.31.750,ranlexdec,2020.2.5,MacIntel,60
,,,,,,,,,,,,left,0.888,0,205,205,175,1,szilikát,KT117,nő,2001,,2021-05-13_09h08.31.750,ranlexdec,2020.2.5,MacIntel,60
,,,,,,,,,,,,right,0.991,0,206,206,53,1,puritán,KT117,nő,2001,,2021-05-13_09h08.31.750,ranlexdec,2020.2.5,MacIntel,60
,,,,,,,,,,,,right,0.633,0,207,207,31,1,iszlám,KT117,nő,2001,,2021-05-13_09h08.31.750,ranlexdec,2020.2.5,MacIntel,60
,,,,,,,,,,,,left,0.8,0,208,208,36,1,tröshet,KT117,nő,2001,,2021-05-13_09h08.31.750,ranlexdec,2020.2.5,MacIntel,60
,,,,,,,,,,,,left,0.873,0,209,209,24,1,kosi,KT117,nő,2001,,2021-05-13_09h08.31.750,ranlexdec,2020.2.5,MacIntel,60
,,,,,,,,,,,,left,0.533,0,210,210,135,1,ion,KT117,nő,2001,,2021-05-13_09h08.31.750,ranlexdec,2020.2.5,MacIntel,60
,,,,,,,,,,,,right,1.181,0,211,211,21,1,heveny,KT117,nő,2001,,2021-05-13_09h08.31.750,ranlexdec,2020.2.5,MacIntel,60
,,,,,,,,,,,,left,0.833,0,212,212,159,1,elegy,KT117,nő,2001,,2021-05-13_09h08.31.750,ranlexdec,2020.2.5,MacIntel,60
,,,,,,,,,,,,right,1.284,0,213,213,110,1,időszak,KT117,nő,2001,,2021-05-13_09h08.31.750,ranlexdec,2020.2.5,MacIntel,60
,,,,,,,,,,,,right,1.682,0,214,214,148,1,mellényzseb,KT117,nő,2001,,2021-05-13_09h08.31.750,ranlexdec,2020.2.5,MacIntel,60
,,,,,,,,,,,,right,0.966,0,215,215,85,1,glükóz,KT117,nő,2001,,2021-05-13_09h08.31.750,ranlexdec,2020.2.5,MacIntel,60
,,,,,,,,,,,,right,1.053,0,216,216,89,1,szokik,KT117,nő,2001,,2021-05-13_09h08.31.750,ranlexdec,2020.2.5,MacIntel,60
,,,,,,,,,,,,right,1.453,0,217,217,208,1,lélek,KT117,nő,2001,,2021-05-13_09h08.31.750,ranlexdec,2020.2.5,MacIntel,60
,,,,,,,,,,,,left,1.738,0,218,218,121,1,aggófű,KT117,nő,2001,,2021-05-13_09h08.31.750,ranlexdec,2020.2.5,MacIntel,60
,,,,,,,,,,,,right,0.887,0,219,219,123,1,luftballon,KT117,nő,2001,,2021-05-13_09h08.31.750,ranlexdec,2020.2.5,MacIntel,60
,,,,,,,,,,,,right,0.839,0,220,220,34,1,csengettyű,KT117,nő,2001,,2021-05-13_09h08.31.750,ranlexdec,2020.2.5,MacIntel,60
,,,,,,,,,,,,left,1.067,0,221,221,109,1,vényegő,KT117,nő,2001,,2021-05-13_09h08.31.750,ranlexdec,2020.2.5,MacIntel,60
,,,,,,,,,,,,right,0.789,0,222,222,132,1,hatalom,KT117,nő,2001,,2021-05-13_09h08.31.750,ranlexdec,2020.2.5,MacIntel,60
,,,,,,,,,,,,right,0.818,0,223,223,11,1,viszkóz,KT117,nő,2001,,2021-05-13_09h08.31.750,ranlexdec,2020.2.5,MacIntel,60
,,,,,,,,,,,,right,1.38,0,224,224,152,1,rakódik,KT117,nő,2001,,2021-05-13_09h08.31.750,ranlexdec,2020.2.5,MacIntel,60
,,,,,,,,,,,,right,0.784,0,225,225,129,1,turné,KT117,nő,2001,,2021-05-13_09h08.31.750,ranlexdec,2020.2.5,MacIntel,60
,,,,,,,,,,,,right,0.62,0,226,226,73,1,olaj,KT117,nő,2001,,2021-05-13_09h08.31.750,ranlexdec,2020.2.5,MacIntel,60
,,,,,,,,,,,,left,1.323,0,227,227,72,1,mihálóz,KT117,nő,2001,,2021-05-13_09h08.31.750,ranlexdec,2020.2.5,MacIntel,60
,,,,,,,,,,,,right,0.734,0,228,228,213,1,eszköz,KT117,nő,2001,,2021-05-13_09h08.31.750,ranlexdec,2020.2.5,MacIntel,60
,,,,,,,,,,,,right,0.47,0,229,229,116,1,árus,KT117,nő,2001,,2021-05-13_09h08.31.750,ranlexdec,2020.2.5,MacIntel,60
,,,,,,,,,,,,left,0.717,0,230,230,102,1,pentez,KT117,nő,2001,,2021-05-13_09h08.31.750,ranlexdec,2020.2.5,MacIntel,60
,,,,,,,,,,,,right,1.039,0,231,231,14,1,selypít,KT117,nő,2001,,2021-05-13_09h08.31.750,ranlexdec,2020.2.5,MacIntel,60
,,,,,,,,,,,,left,1.747,0,232,232,207,1,diffamál,KT117,nő,2001,,2021-05-13_09h08.31.750,ranlexdec,2020.2.5,MacIntel,60
,,,,,,,,,,,,right,0.902,0,233,233,234,1,fertilis,KT117,nő,2001,,2021-05-13_09h08.31.750,ranlexdec,2020.2.5,MacIntel,60
,,,,,,,,,,,,left,1.222,0,234,234,225,1,bajadér,KT117,nő,2001,,2021-05-13_09h08.31.750,ranlexdec,2020.2.5,MacIntel,60
,,,,,,,,,,,,left,1.331,0,235,235,23,1,szelégül,KT117,nő,2001,,2021-05-13_09h08.31.750,ranlexdec,2020.2.5,MacIntel,60
,,,,,,,,,,,,left,0.721,0,236,236,162,1,nimbus,KT117,nő,2001,,2021-05-13_09h08.31.750,ranlexdec,2020.2.5,MacIntel,60
,,,,,,,,,,,,right,0.587,0,237,237,18,1,csapattest,KT117,nő,2001,,2021-05-13_09h08.31.750,ranlexdec,2020.2.5,MacIntel,60
,,,,,,,,,,,,left,1.023,0,238,238,219,1,szimboló,KT117,nő,2001,,2021-05-13_09h08.31.750,ranlexdec,2020.2.5,MacIntel,60
,,,,,,,,,,,,left,0.987,0,239,239,125,1,úszamos,KT117,nő,2001,,2021-05-13_09h08.31.750,ranlexdec,2020.2.5,MacIntel,60
,,,,,,,,,,,,left,0.996,0,240,240,229,1,lemesség,KT117,nő,2001,,2021-05-13_09h08.31.750,ranlexdec,2020.2.5,MacIntel,60
,,,,,,,,,,,,right,0.638,0,241,241,80,1,darab,KT117,nő,2001,,2021-05-13_09h08.31.750,ranlexdec,2020.2.5,MacIntel,60
,,,,,,,,,,,,right,0.536,0,242,242,12,1,gyapot,KT117,nő,2001,,2021-05-13_09h08.31.750,ranlexdec,2020.2.5,MacIntel,60
,,,,,,,,,,,,left,0.766,0,243,243,82,1,kvéker,KT117,nő,2001,,2021-05-13_09h08.31.750,ranlexdec,2020.2.5,MacIntel,60
,,,,,,,,,,,,right,0.704,0,244,244,10,1,nárcisz,KT117,nő,2001,,2021-05-13_09h08.31.750,ranlexdec,2020.2.5,MacIntel,60
,,,,,,,,,,,,right,1.405,0,245,245,249,1,kencéz,KT117,nő,2001,,2021-05-13_09h08.31.750,ranlexdec,2020.2.5,MacIntel,60
,,,,,,,,,,,,right,2.69,0,246,246,216,1,svábtök,KT117,nő,2001,,2021-05-13_09h08.31.750,ranlexdec,2020.2.5,MacIntel,60
,,,,,,,,,,,,left,1.921,0,247,247,87,1,forrpont,KT117,nő,2001,,2021-05-13_09h08.31.750,ranlexdec,2020.2.5,MacIntel,60
,,,,,,,,,,,,left,1.267,0,248,248,108,1,konyrúd,KT117,nő,2001,,2021-05-13_09h08.31.750,ranlexdec,2020.2.5,MacIntel,60
,,,,,,,,,,,,right,0.932,0,249,249,241,1,kárpit,KT117,nő,2001,,2021-05-13_09h08.31.750,ranlexdec,2020.2.5,MacIntel,60
