ready2_2.keys,ready2_2.rt,ready2.keys,ready2.rt,key_resp.keys,key_resp.rt,key_resp_3.keys,key_resp_3.rt,key_resp_2.keys,key_resp_2.rt,ready3.keys,ready3.rt,resp.keys,resp.rt,withinBlock.thisRepN,withinBlock.thisTrialN,withinBlock.thisN,withinBlock.thisIndex,withinBlock.ran,word,Azonosító,Az Ön neme,Születési éve,Hány évet töltött az iskolapadban (egyetemet is beleértve),date,expName,psychopyVersion,OS,frameRate
num_enter,29.85954,num_enter,33.069755,right,11.05465,left,2.58239,left,6.285275,num_enter,15.02139,right,2.11537,0,0,0,200,1,biliárd,KT147,nő,1989,17,2021-05-13_10h48.50.348,ranlexdec,2020.2.5,Win32,60
,,,,,,,,,,,,right,0.89374,0,1,1,221,1,törődik,KT147,nő,1989,17,2021-05-13_10h48.50.348,ranlexdec,2020.2.5,Win32,60
,,,,,,,,,,,,right,1.64919,0,2,2,15,1,pauzál,KT147,nő,1989,17,2021-05-13_10h48.50.348,ranlexdec,2020.2.5,Win32,60
,,,,,,,,,,,,right,1.248435,0,3,3,226,1,szalicil,KT147,nő,1989,17,2021-05-13_10h48.50.348,ranlexdec,2020.2.5,Win32,60
,,,,,,,,,,,,left,3.31197,0,4,4,38,1,zomogyi,KT147,nő,1989,17,2021-05-13_10h48.50.348,ranlexdec,2020.2.5,Win32,60
,,,,,,,,,,,,right,1.4417,0,5,5,80,1,darab,KT147,nő,1989,17,2021-05-13_10h48.50.348,ranlexdec,2020.2.5,Win32,60
,,,,,,,,,,,,right,1.570005,0,6,6,235,1,transzplantál,KT147,nő,1989,17,2021-05-13_10h48.50.348,ranlexdec,2020.2.5,Win32,60
,,,,,,,,,,,,right,2.281455,0,7,7,239,1,donhuán,KT147,nő,1989,17,2021-05-13_10h48.50.348,ranlexdec,2020.2.5,Win32,60
,,,,,,,,,,,,right,0.75879,0,8,8,158,1,hidroxid,KT147,nő,1989,17,2021-05-13_10h48.50.348,ranlexdec,2020.2.5,Win32,60
,,,,,,,,,,,,left,6.67911,0,9,9,118,1,libling,KT147,nő,1989,17,2021-05-13_10h48.50.348,ranlexdec,2020.2.5,Win32,60
,,,,,,,,,,,,right,0.898105,0,10,10,6,1,csüggeszt,KT147,nő,1989,17,2021-05-13_10h48.50.348,ranlexdec,2020.2.5,Win32,60
,,,,,,,,,,,,right,0.610535,0,11,11,45,1,népszerű,KT147,nő,1989,17,2021-05-13_10h48.50.348,ranlexdec,2020.2.5,Win32,60
,,,,,,,,,,,,left,1.177145,0,12,12,16,1,cséltás,KT147,nő,1989,17,2021-05-13_10h48.50.348,ranlexdec,2020.2.5,Win32,60
,,,,,,,,,,,,right,1.17587,0,13,13,105,1,tököl,KT147,nő,1989,17,2021-05-13_10h48.50.348,ranlexdec,2020.2.5,Win32,60
,,,,,,,,,,,,right,1.06044,0,14,14,92,1,lágyék,KT147,nő,1989,17,2021-05-13_10h48.50.348,ranlexdec,2020.2.5,Win32,60
,,,,,,,,,,,,right,0.817925,0,15,15,230,1,délceg,KT147,nő,1989,17,2021-05-13_10h48.50.348,ranlexdec,2020.2.5,Win32,60
,,,,,,,,,,,,right,0.610975,0,16,16,126,1,rejtőzik,KT147,nő,1989,17,2021-05-13_10h48.50.348,ranlexdec,2020.2.5,Win32,60
,,,,,,,,,,,,left,0.966445,0,17,17,167,1,vabank,KT147,nő,1989,17,2021-05-13_10h48.50.348,ranlexdec,2020.2.5,Win32,60
,,,,,,,,,,,,right,0.85167,0,18,18,104,1,dolog,KT147,nő,1989,17,2021-05-13_10h48.50.348,ranlexdec,2020.2.5,Win32,60
,,,,,,,,,,,,right,0.95387,0,19,19,124,1,alkalom,KT147,nő,1989,17,2021-05-13_10h48.50.348,ranlexdec,2020.2.5,Win32,60
,,,,,,,,,,,,right,1.144215,0,20,20,27,1,sporthorgász,KT147,nő,1989,17,2021-05-13_10h48.50.348,ranlexdec,2020.2.5,Win32,60
,,,,,,,,,,,,right,1.113285,0,21,21,82,1,kvéker,KT147,nő,1989,17,2021-05-13_10h48.50.348,ranlexdec,2020.2.5,Win32,60
,,,,,,,,,,,,right,0.640425,0,22,22,241,1,kárpit,KT147,nő,1989,17,2021-05-13_10h48.50.348,ranlexdec,2020.2.5,Win32,60
,,,,,,,,,,,,left,1.014725,0,23,23,131,1,vetézmés,KT147,nő,1989,17,2021-05-13_10h48.50.348,ranlexdec,2020.2.5,Win32,60
,,,,,,,,,,,,right,1.284875,0,24,24,132,1,hatalom,KT147,nő,1989,17,2021-05-13_10h48.50.348,ranlexdec,2020.2.5,Win32,60
,,,,,,,,,,,,right,1.72902,0,25,25,35,1,türemlik,KT147,nő,1989,17,2021-05-13_10h48.50.348,ranlexdec,2020.2.5,Win32,60
,,,,,,,,,,,,right,0.750945,0,26,26,177,1,pereg,KT147,nő,1989,17,2021-05-13_10h48.50.348,ranlexdec,2020.2.5,Win32,60
,,,,,,,,,,,,right,1.43402,0,27,27,162,1,nimbus,KT147,nő,1989,17,2021-05-13_10h48.50.348,ranlexdec,2020.2.5,Win32,60
,,,,,,,,,,,,right,0.59006,0,28,28,151,1,komplex,KT147,nő,1989,17,2021-05-13_10h48.50.348,ranlexdec,2020.2.5,Win32,60
,,,,,,,,,,,,left,0.876565,0,29,29,76,1,jegedény,KT147,nő,1989,17,2021-05-13_10h48.50.348,ranlexdec,2020.2.5,Win32,60
,,,,,,,,,,,,right,1.016745,0,30,30,59,1,ómagyar,KT147,nő,1989,17,2021-05-13_10h48.50.348,ranlexdec,2020.2.5,Win32,60
,,,,,,,,,,,,right,0.82802,0,31,31,175,1,szilikát,KT147,nő,1989,17,2021-05-13_10h48.50.348,ranlexdec,2020.2.5,Win32,60
,,,,,,,,,,,,right,1.229385,0,32,32,190,1,rámáz,KT147,nő,1989,17,2021-05-13_10h48.50.348,ranlexdec,2020.2.5,Win32,60
,,,,,,,,,,,,right,2.06888,0,33,33,20,1,század,KT147,nő,1989,17,2021-05-13_10h48.50.348,ranlexdec,2020.2.5,Win32,60
,,,,,,,,,,,,left,1.57007,0,34,34,166,1,retálhit,KT147,nő,1989,17,2021-05-13_10h48.50.348,ranlexdec,2020.2.5,Win32,60
,,,,,,,,,,,,right,0.750445,0,35,35,90,1,orális,KT147,nő,1989,17,2021-05-13_10h48.50.348,ranlexdec,2020.2.5,Win32,60
,,,,,,,,,,,,right,0.58098,0,36,36,184,1,profit,KT147,nő,1989,17,2021-05-13_10h48.50.348,ranlexdec,2020.2.5,Win32,60
,,,,,,,,,,,,right,3.128655,0,37,37,17,1,magmatit,KT147,nő,1989,17,2021-05-13_10h48.50.348,ranlexdec,2020.2.5,Win32,60
,,,,,,,,,,,,left,1.166935,0,38,38,50,1,csenyei,KT147,nő,1989,17,2021-05-13_10h48.50.348,ranlexdec,2020.2.5,Win32,60
,,,,,,,,,,,,right,1.234405,0,39,39,210,1,karakter,KT147,nő,1989,17,2021-05-13_10h48.50.348,ranlexdec,2020.2.5,Win32,60
,,,,,,,,,,,,right,1.09771,0,40,40,189,1,konverzál,KT147,nő,1989,17,2021-05-13_10h48.50.348,ranlexdec,2020.2.5,Win32,60
,,,,,,,,,,,,left,1.83291,0,41,41,225,1,bajadér,KT147,nő,1989,17,2021-05-13_10h48.50.348,ranlexdec,2020.2.5,Win32,60
,,,,,,,,,,,,left,1.871075,0,42,42,4,1,viszonvád,KT147,nő,1989,17,2021-05-13_10h48.50.348,ranlexdec,2020.2.5,Win32,60
,,,,,,,,,,,,right,0.924635,0,43,43,157,1,káder,KT147,nő,1989,17,2021-05-13_10h48.50.348,ranlexdec,2020.2.5,Win32,60
,,,,,,,,,,,,right,0.557275,0,44,44,196,1,dolgozik,KT147,nő,1989,17,2021-05-13_10h48.50.348,ranlexdec,2020.2.5,Win32,60
,,,,,,,,,,,,left,4.28403,0,45,45,212,1,farkasbab,KT147,nő,1989,17,2021-05-13_10h48.50.348,ranlexdec,2020.2.5,Win32,60
,,,,,,,,,,,,right,4.36183,0,46,46,215,1,neoprén,KT147,nő,1989,17,2021-05-13_10h48.50.348,ranlexdec,2020.2.5,Win32,60
,,,,,,,,,,,,right,3.064945,0,47,47,222,1,nyersarany,KT147,nő,1989,17,2021-05-13_10h48.50.348,ranlexdec,2020.2.5,Win32,60
,,,,,,,,,,,,right,0.819425,0,48,48,67,1,szegény,KT147,nő,1989,17,2021-05-13_10h48.50.348,ranlexdec,2020.2.5,Win32,60
,,,,,,,,,,,,right,0.8756,0,49,49,14,1,selypít,KT147,nő,1989,17,2021-05-13_10h48.50.348,ranlexdec,2020.2.5,Win32,60
,,,,,,,,,,,,left,6.90076,0,50,50,233,1,templomoz,KT147,nő,1989,17,2021-05-13_10h48.50.348,ranlexdec,2020.2.5,Win32,60
,,,,,,,,,,,,right,2.59432,0,51,51,136,1,rücsök,KT147,nő,1989,17,2021-05-13_10h48.50.348,ranlexdec,2020.2.5,Win32,60
,,,,,,,,,,,,right,1.58038,0,52,52,46,1,kurzív,KT147,nő,1989,17,2021-05-13_10h48.50.348,ranlexdec,2020.2.5,Win32,60
,,,,,,,,,,,,right,0.756355,0,53,53,171,1,újgazdag,KT147,nő,1989,17,2021-05-13_10h48.50.348,ranlexdec,2020.2.5,Win32,60
,,,,,,,,,,,,right,1.12003,0,54,54,62,1,bizmut,KT147,nő,1989,17,2021-05-13_10h48.50.348,ranlexdec,2020.2.5,Win32,60
,,,,,,,,,,,,left,1.250015,0,55,55,155,1,megpadék,KT147,nő,1989,17,2021-05-13_10h48.50.348,ranlexdec,2020.2.5,Win32,60
,,,,,,,,,,,,right,1.616975,0,56,56,22,1,arzénsav,KT147,nő,1989,17,2021-05-13_10h48.50.348,ranlexdec,2020.2.5,Win32,60
,,,,,,,,,,,,right,3.581865,0,57,57,185,1,gyülemlik,KT147,nő,1989,17,2021-05-13_10h48.50.348,ranlexdec,2020.2.5,Win32,60
,,,,,,,,,,,,right,0.64929,0,58,58,61,1,régész,KT147,nő,1989,17,2021-05-13_10h48.50.348,ranlexdec,2020.2.5,Win32,60
,,,,,,,,,,,,left,1.13629,0,59,59,195,1,petél,KT147,nő,1989,17,2021-05-13_10h48.50.348,ranlexdec,2020.2.5,Win32,60
,,,,,,,,,,,,right,0.83494,0,60,60,238,1,bolgár,KT147,nő,1989,17,2021-05-13_10h48.50.348,ranlexdec,2020.2.5,Win32,60
,,,,,,,,,,,,right,1.08702,0,61,61,99,1,sárgaréz,KT147,nő,1989,17,2021-05-13_10h48.50.348,ranlexdec,2020.2.5,Win32,60
,,,,,,,,,,,,right,1.91411,0,62,62,234,1,fertilis,KT147,nő,1989,17,2021-05-13_10h48.50.348,ranlexdec,2020.2.5,Win32,60
,,,,,,,,,,,,left,1.471205,0,63,63,106,1,lalláz,KT147,nő,1989,17,2021-05-13_10h48.50.348,ranlexdec,2020.2.5,Win32,60
,,,,,,,,,,,,right,0.6989,0,64,64,140,1,diktátor,KT147,nő,1989,17,2021-05-13_10h48.50.348,ranlexdec,2020.2.5,Win32,60
,,,,,,,,,,,,right,15.65908,0,65,65,44,1,ingváll,KT147,nő,1989,17,2021-05-13_10h48.50.348,ranlexdec,2020.2.5,Win32,60
,,,,,,,,,,,,right,1.150575,0,66,66,148,1,mellényzseb,KT147,nő,1989,17,2021-05-13_10h48.50.348,ranlexdec,2020.2.5,Win32,60
,,,,,,,,,,,,right,0.64643,0,67,67,246,1,beton,KT147,nő,1989,17,2021-05-13_10h48.50.348,ranlexdec,2020.2.5,Win32,60
,,,,,,,,,,,,right,3.372675,0,68,68,209,1,hidegház,KT147,nő,1989,17,2021-05-13_10h48.50.348,ranlexdec,2020.2.5,Win32,60
,,,,,,,,,,,,right,1.755295,0,69,69,95,1,skubizik,KT147,nő,1989,17,2021-05-13_10h48.50.348,ranlexdec,2020.2.5,Win32,60
,,,,,,,,,,,,left,1.05208,0,70,70,192,1,norvend,KT147,nő,1989,17,2021-05-13_10h48.50.348,ranlexdec,2020.2.5,Win32,60
,,,,,,,,,,,,left,1.98191,0,71,71,70,1,lakotthely,KT147,nő,1989,17,2021-05-13_10h48.50.348,ranlexdec,2020.2.5,Win32,60
,,,,,,,,,,,,left,3.06476,0,72,72,164,1,kurzivál,KT147,nő,1989,17,2021-05-13_10h48.50.348,ranlexdec,2020.2.5,Win32,60
,,,,,,,,,,,,left,2.425225,0,73,73,153,1,kontrapunkt,KT147,nő,1989,17,2021-05-13_10h48.50.348,ranlexdec,2020.2.5,Win32,60
,,,,,,,,,,,,right,0.94504,0,74,74,231,1,igény,KT147,nő,1989,17,2021-05-13_10h48.50.348,ranlexdec,2020.2.5,Win32,60
,,,,,,,,,,,,right,16.29994,0,75,75,176,1,bélyeg,KT147,nő,1989,17,2021-05-13_10h48.50.348,ranlexdec,2020.2.5,Win32,60
,,,,,,,,,,,,left,1.66664,0,76,76,173,1,glosszáz,KT147,nő,1989,17,2021-05-13_10h48.50.348,ranlexdec,2020.2.5,Win32,60
,,,,,,,,,,,,right,1.68233,0,77,77,8,1,kulcscsont,KT147,nő,1989,17,2021-05-13_10h48.50.348,ranlexdec,2020.2.5,Win32,60
,,,,,,,,,,,,left,1.40628,0,78,78,150,1,orront,KT147,nő,1989,17,2021-05-13_10h48.50.348,ranlexdec,2020.2.5,Win32,60
,,,,,,,,,,,,left,2.374425,0,79,79,71,1,extuál,KT147,nő,1989,17,2021-05-13_10h48.50.348,ranlexdec,2020.2.5,Win32,60
,,,,,,,,,,,,left,2.031855,0,80,80,18,1,csapattest,KT147,nő,1989,17,2021-05-13_10h48.50.348,ranlexdec,2020.2.5,Win32,60
,,,,,,,,,,,,right,1.834695,0,81,81,146,1,kondenzcsík,KT147,nő,1989,17,2021-05-13_10h48.50.348,ranlexdec,2020.2.5,Win32,60
,,,,,,,,,,,,right,0.999685,0,82,82,182,1,nagyszámú,KT147,nő,1989,17,2021-05-13_10h48.50.348,ranlexdec,2020.2.5,Win32,60
,,,,,,,,,,,,right,0.60434,0,83,83,100,1,balközép,KT147,nő,1989,17,2021-05-13_10h48.50.348,ranlexdec,2020.2.5,Win32,60
,,,,,,,,,,,,left,1.365655,0,84,84,219,1,szimboló,KT147,nő,1989,17,2021-05-13_10h48.50.348,ranlexdec,2020.2.5,Win32,60
,,,,,,,,,,,,right,0.78188,0,85,85,236,1,csatázik,KT147,nő,1989,17,2021-05-13_10h48.50.348,ranlexdec,2020.2.5,Win32,60
,,,,,,,,,,,,right,2.758755,0,86,86,98,1,mítosz,KT147,nő,1989,17,2021-05-13_10h48.50.348,ranlexdec,2020.2.5,Win32,60
,,,,,,,,,,,,left,1.50002,0,87,87,232,1,tropikus,KT147,nő,1989,17,2021-05-13_10h48.50.348,ranlexdec,2020.2.5,Win32,60
,,,,,,,,,,,,left,1.13738,0,88,88,47,1,döföl,KT147,nő,1989,17,2021-05-13_10h48.50.348,ranlexdec,2020.2.5,Win32,60
,,,,,,,,,,,,left,3.132215,0,89,89,96,1,alfél,KT147,nő,1989,17,2021-05-13_10h48.50.348,ranlexdec,2020.2.5,Win32,60
,,,,,,,,,,,,right,2.02442,0,90,90,37,1,lukaszt,KT147,nő,1989,17,2021-05-13_10h48.50.348,ranlexdec,2020.2.5,Win32,60
,,,,,,,,,,,,right,1.180595,0,91,91,228,1,tarol,KT147,nő,1989,17,2021-05-13_10h48.50.348,ranlexdec,2020.2.5,Win32,60
,,,,,,,,,,,,right,0.635875,0,92,92,34,1,csengettyű,KT147,nő,1989,17,2021-05-13_10h48.50.348,ranlexdec,2020.2.5,Win32,60
,,,,,,,,,,,,left,2.69787,0,93,93,81,1,takorák,KT147,nő,1989,17,2021-05-13_10h48.50.348,ranlexdec,2020.2.5,Win32,60
,,,,,,,,,,,,left,0.928435,0,94,94,75,1,karnogó,KT147,nő,1989,17,2021-05-13_10h48.50.348,ranlexdec,2020.2.5,Win32,60
,,,,,,,,,,,,right,0.84061,0,95,95,74,1,püffeszt,KT147,nő,1989,17,2021-05-13_10h48.50.348,ranlexdec,2020.2.5,Win32,60
,,,,,,,,,,,,right,2.4333,0,96,96,240,1,áradmány,KT147,nő,1989,17,2021-05-13_10h48.50.348,ranlexdec,2020.2.5,Win32,60
,,,,,,,,,,,,right,0.94528,0,97,97,69,1,gerencsér,KT147,nő,1989,17,2021-05-13_10h48.50.348,ranlexdec,2020.2.5,Win32,60
,,,,,,,,,,,,left,1.37023,0,98,98,109,1,vényegő,KT147,nő,1989,17,2021-05-13_10h48.50.348,ranlexdec,2020.2.5,Win32,60
,,,,,,,,,,,,right,1.00204,0,99,99,129,1,turné,KT147,nő,1989,17,2021-05-13_10h48.50.348,ranlexdec,2020.2.5,Win32,60
,,,,,,,,,,,,left,0.930145,0,100,100,203,1,abeti,KT147,nő,1989,17,2021-05-13_10h48.50.348,ranlexdec,2020.2.5,Win32,60
,,,,,,,,,,,,left,2.99372,0,101,101,180,1,adszorbens,KT147,nő,1989,17,2021-05-13_10h48.50.348,ranlexdec,2020.2.5,Win32,60
,,,,,,,,,,,,left,1.32516,0,102,102,119,1,cugehőr,KT147,nő,1989,17,2021-05-13_10h48.50.348,ranlexdec,2020.2.5,Win32,60
,,,,,,,,,,,,left,1.126045,0,103,103,2,1,gyásos,KT147,nő,1989,17,2021-05-13_10h48.50.348,ranlexdec,2020.2.5,Win32,60
,,,,,,,,,,,,right,1.00391,0,104,104,101,1,nukleon,KT147,nő,1989,17,2021-05-13_10h48.50.348,ranlexdec,2020.2.5,Win32,60
,,,,,,,,,,,,left,0.945335,0,105,105,133,1,hübrisz,KT147,nő,1989,17,2021-05-13_10h48.50.348,ranlexdec,2020.2.5,Win32,60
,,,,,,,,,,,,right,0.705495,0,106,106,244,1,kislány,KT147,nő,1989,17,2021-05-13_10h48.50.348,ranlexdec,2020.2.5,Win32,60
,,,,,,,,,,,,right,0.8402,0,107,107,147,1,referál,KT147,nő,1989,17,2021-05-13_10h48.50.348,ranlexdec,2020.2.5,Win32,60
,,,,,,,,,,,,left,0.76602,0,108,108,107,1,kelől,KT147,nő,1989,17,2021-05-13_10h48.50.348,ranlexdec,2020.2.5,Win32,60
,,,,,,,,,,,,left,1.11155,0,109,109,29,1,novagár,KT147,nő,1989,17,2021-05-13_10h48.50.348,ranlexdec,2020.2.5,Win32,60
,,,,,,,,,,,,left,0.855895,0,110,110,72,1,mihálóz,KT147,nő,1989,17,2021-05-13_10h48.50.348,ranlexdec,2020.2.5,Win32,60
,,,,,,,,,,,,right,0.807545,0,111,111,86,1,jármű,KT147,nő,1989,17,2021-05-13_10h48.50.348,ranlexdec,2020.2.5,Win32,60
,,,,,,,,,,,,left,1.77231,0,112,112,51,1,bajuszfű,KT147,nő,1989,17,2021-05-13_10h48.50.348,ranlexdec,2020.2.5,Win32,60
,,,,,,,,,,,,left,1.92999,0,113,113,42,1,összalaj,KT147,nő,1989,17,2021-05-13_10h48.50.348,ranlexdec,2020.2.5,Win32,60
,,,,,,,,,,,,right,0.792135,0,114,114,88,1,pohár,KT147,nő,1989,17,2021-05-13_10h48.50.348,ranlexdec,2020.2.5,Win32,60
,,,,,,,,,,,,left,1.601885,0,115,115,142,1,storítő,KT147,nő,1989,17,2021-05-13_10h48.50.348,ranlexdec,2020.2.5,Win32,60
,,,,,,,,,,,,right,0.721115,0,116,116,54,1,fürkész,KT147,nő,1989,17,2021-05-13_10h48.50.348,ranlexdec,2020.2.5,Win32,60
,,,,,,,,,,,,right,2.02833,0,117,117,243,1,dipeptid,KT147,nő,1989,17,2021-05-13_10h48.50.348,ranlexdec,2020.2.5,Win32,60
,,,,,,,,,,,,right,0.623845,0,118,118,55,1,látszik,KT147,nő,1989,17,2021-05-13_10h48.50.348,ranlexdec,2020.2.5,Win32,60
,,,,,,,,,,,,right,0.90781,0,119,119,122,1,égitest,KT147,nő,1989,17,2021-05-13_10h48.50.348,ranlexdec,2020.2.5,Win32,60
,,,,,,,,,,,,left,0.705635,0,120,120,24,1,kosi,KT147,nő,1989,17,2021-05-13_10h48.50.348,ranlexdec,2020.2.5,Win32,60
,,,,,,,,,,,,right,0.703655,0,121,121,144,1,rövid,KT147,nő,1989,17,2021-05-13_10h48.50.348,ranlexdec,2020.2.5,Win32,60
,,,,,,,,,,,,right,2.688035,0,122,122,199,1,ború,KT147,nő,1989,17,2021-05-13_10h48.50.348,ranlexdec,2020.2.5,Win32,60
,,,,,,,,,,,,left,0.72968,0,123,123,141,1,hider,KT147,nő,1989,17,2021-05-13_10h48.50.348,ranlexdec,2020.2.5,Win32,60
,,,,,,,,,,,,right,0.76327,0,124,124,170,1,változik,KT147,nő,1989,17,2021-05-13_10h48.50.348,ranlexdec,2020.2.5,Win32,60
,,,,,,,,,,,,right,0.77976,0,125,125,188,1,sugár,KT147,nő,1989,17,2021-05-13_10h48.50.348,ranlexdec,2020.2.5,Win32,60
,,,,,,,,,,,,right,1.60694,0,126,126,135,1,ion,KT147,nő,1989,17,2021-05-13_10h48.50.348,ranlexdec,2020.2.5,Win32,60
,,,,,,,,,,,,right,0.965625,0,127,127,247,1,ausztrál,KT147,nő,1989,17,2021-05-13_10h48.50.348,ranlexdec,2020.2.5,Win32,60
,,,,,,,,,,,,right,1.853675,0,128,128,56,1,kanalaz,KT147,nő,1989,17,2021-05-13_10h48.50.348,ranlexdec,2020.2.5,Win32,60
,,,,,,,,,,,,right,5.854385,0,129,129,138,1,gyűjtemény,KT147,nő,1989,17,2021-05-13_10h48.50.348,ranlexdec,2020.2.5,Win32,60
,,,,,,,,,,,,right,1.10375,0,130,130,194,1,végbél,KT147,nő,1989,17,2021-05-13_10h48.50.348,ranlexdec,2020.2.5,Win32,60
,,,,,,,,,,,,right,2.24323,0,131,131,114,1,tartalom,KT147,nő,1989,17,2021-05-13_10h48.50.348,ranlexdec,2020.2.5,Win32,60
,,,,,,,,,,,,left,1.886035,0,132,132,191,1,hitódó,KT147,nő,1989,17,2021-05-13_10h48.50.348,ranlexdec,2020.2.5,Win32,60
,,,,,,,,,,,,left,2.693185,0,133,133,66,1,parkkói,KT147,nő,1989,17,2021-05-13_10h48.50.348,ranlexdec,2020.2.5,Win32,60
,,,,,,,,,,,,left,1.04785,0,134,134,186,1,piláf,KT147,nő,1989,17,2021-05-13_10h48.50.348,ranlexdec,2020.2.5,Win32,60
,,,,,,,,,,,,left,1.528655,0,135,135,103,1,szabotró,KT147,nő,1989,17,2021-05-13_10h48.50.348,ranlexdec,2020.2.5,Win32,60
,,,,,,,,,,,,right,0.99457,0,136,136,21,1,heveny,KT147,nő,1989,17,2021-05-13_10h48.50.348,ranlexdec,2020.2.5,Win32,60
,,,,,,,,,,,,right,0.569115,0,137,137,156,1,lazúroz,KT147,nő,1989,17,2021-05-13_10h48.50.348,ranlexdec,2020.2.5,Win32,60
,,,,,,,,,,,,right,0.658525,0,138,138,87,1,forrpont,KT147,nő,1989,17,2021-05-13_10h48.50.348,ranlexdec,2020.2.5,Win32,60
,,,,,,,,,,,,left,1.041625,0,139,139,198,1,lublika,KT147,nő,1989,17,2021-05-13_10h48.50.348,ranlexdec,2020.2.5,Win32,60
,,,,,,,,,,,,right,1.94602,0,140,140,224,1,truccol,KT147,nő,1989,17,2021-05-13_10h48.50.348,ranlexdec,2020.2.5,Win32,60
,,,,,,,,,,,,left,1.092755,0,141,141,197,1,krakéler,KT147,nő,1989,17,2021-05-13_10h48.50.348,ranlexdec,2020.2.5,Win32,60
,,,,,,,,,,,,right,0.63535,0,142,142,206,1,horizont,KT147,nő,1989,17,2021-05-13_10h48.50.348,ranlexdec,2020.2.5,Win32,60
,,,,,,,,,,,,right,1.131375,0,143,143,143,1,rojtoz,KT147,nő,1989,17,2021-05-13_10h48.50.348,ranlexdec,2020.2.5,Win32,60
,,,,,,,,,,,,left,2.919485,0,144,144,139,1,vároló,KT147,nő,1989,17,2021-05-13_10h48.50.348,ranlexdec,2020.2.5,Win32,60
,,,,,,,,,,,,left,1.194535,0,145,145,84,1,kúpol,KT147,nő,1989,17,2021-05-13_10h48.50.348,ranlexdec,2020.2.5,Win32,60
,,,,,,,,,,,,right,1.19897,0,146,146,174,1,cianid,KT147,nő,1989,17,2021-05-13_10h48.50.348,ranlexdec,2020.2.5,Win32,60
,,,,,,,,,,,,left,1.75322,0,147,147,137,1,aragas,KT147,nő,1989,17,2021-05-13_10h48.50.348,ranlexdec,2020.2.5,Win32,60
,,,,,,,,,,,,left,2.476485,0,148,148,65,1,infimum,KT147,nő,1989,17,2021-05-13_10h48.50.348,ranlexdec,2020.2.5,Win32,60
,,,,,,,,,,,,right,1.605135,0,149,149,110,1,időszak,KT147,nő,1989,17,2021-05-13_10h48.50.348,ranlexdec,2020.2.5,Win32,60
,,,,,,,,,,,,right,0.612435,0,150,150,12,1,gyapot,KT147,nő,1989,17,2021-05-13_10h48.50.348,ranlexdec,2020.2.5,Win32,60
,,,,,,,,,,,,right,0.615575,0,151,151,41,1,nagybeteg,KT147,nő,1989,17,2021-05-13_10h48.50.348,ranlexdec,2020.2.5,Win32,60
,,,,,,,,,,,,right,0.70886,0,152,152,248,1,örmény,KT147,nő,1989,17,2021-05-13_10h48.50.348,ranlexdec,2020.2.5,Win32,60
,,,,,,,,,,,,right,0.62963,0,153,153,161,1,példakép,KT147,nő,1989,17,2021-05-13_10h48.50.348,ranlexdec,2020.2.5,Win32,60
,,,,,,,,,,,,right,0.746645,0,154,154,152,1,rakódik,KT147,nő,1989,17,2021-05-13_10h48.50.348,ranlexdec,2020.2.5,Win32,60
,,,,,,,,,,,,right,0.752865,0,155,155,79,1,extrém,KT147,nő,1989,17,2021-05-13_10h48.50.348,ranlexdec,2020.2.5,Win32,60
,,,,,,,,,,,,right,0.96842,0,156,156,183,1,színpad,KT147,nő,1989,17,2021-05-13_10h48.50.348,ranlexdec,2020.2.5,Win32,60
,,,,,,,,,,,,left,1.07055,0,157,157,26,1,aurult,KT147,nő,1989,17,2021-05-13_10h48.50.348,ranlexdec,2020.2.5,Win32,60
,,,,,,,,,,,,right,0.73761,0,158,158,64,1,hálózsák,KT147,nő,1989,17,2021-05-13_10h48.50.348,ranlexdec,2020.2.5,Win32,60
,,,,,,,,,,,,left,1.083655,0,159,159,108,1,konyrúd,KT147,nő,1989,17,2021-05-13_10h48.50.348,ranlexdec,2020.2.5,Win32,60
,,,,,,,,,,,,right,1.46417,0,160,160,128,1,csüggedez,KT147,nő,1989,17,2021-05-13_10h48.50.348,ranlexdec,2020.2.5,Win32,60
,,,,,,,,,,,,right,1.11855,0,161,161,178,1,sziszeg,KT147,nő,1989,17,2021-05-13_10h48.50.348,ranlexdec,2020.2.5,Win32,60
,,,,,,,,,,,,left,1.071855,0,162,162,94,1,rotor,KT147,nő,1989,17,2021-05-13_10h48.50.348,ranlexdec,2020.2.5,Win32,60
,,,,,,,,,,,,right,1.1181,0,163,163,163,1,kollapszus,KT147,nő,1989,17,2021-05-13_10h48.50.348,ranlexdec,2020.2.5,Win32,60
,,,,,,,,,,,,right,0.702045,0,164,164,31,1,iszlám,KT147,nő,1989,17,2021-05-13_10h48.50.348,ranlexdec,2020.2.5,Win32,60
,,,,,,,,,,,,right,0.728995,0,165,165,172,1,kettősfém,KT147,nő,1989,17,2021-05-13_10h48.50.348,ranlexdec,2020.2.5,Win32,60
,,,,,,,,,,,,right,1.16712,0,166,166,30,1,dádá,KT147,nő,1989,17,2021-05-13_10h48.50.348,ranlexdec,2020.2.5,Win32,60
,,,,,,,,,,,,right,0.69511,0,167,167,11,1,viszkóz,KT147,nő,1989,17,2021-05-13_10h48.50.348,ranlexdec,2020.2.5,Win32,60
,,,,,,,,,,,,right,0.901275,0,168,168,120,1,komál,KT147,nő,1989,17,2021-05-13_10h48.50.348,ranlexdec,2020.2.5,Win32,60
,,,,,,,,,,,,left,0.895395,0,169,169,97,1,vésségi,KT147,nő,1989,17,2021-05-13_10h48.50.348,ranlexdec,2020.2.5,Win32,60
,,,,,,,,,,,,left,0.881885,0,170,170,205,1,mimézis,KT147,nő,1989,17,2021-05-13_10h48.50.348,ranlexdec,2020.2.5,Win32,60
,,,,,,,,,,,,right,1.02516,0,171,171,237,1,forgórész,KT147,nő,1989,17,2021-05-13_10h48.50.348,ranlexdec,2020.2.5,Win32,60
,,,,,,,,,,,,right,0.625735,0,172,172,28,1,gazdag,KT147,nő,1989,17,2021-05-13_10h48.50.348,ranlexdec,2020.2.5,Win32,60
,,,,,,,,,,,,right,2.05734,0,173,173,245,1,ellenfél,KT147,nő,1989,17,2021-05-13_10h48.50.348,ranlexdec,2020.2.5,Win32,60
,,,,,,,,,,,,right,1.218825,0,174,174,32,1,genom,KT147,nő,1989,17,2021-05-13_10h48.50.348,ranlexdec,2020.2.5,Win32,60
,,,,,,,,,,,,right,0.48175,0,175,175,78,1,törékeny,KT147,nő,1989,17,2021-05-13_10h48.50.348,ranlexdec,2020.2.5,Win32,60
,,,,,,,,,,,,right,0.53487,0,176,176,179,1,töredék,KT147,nő,1989,17,2021-05-13_10h48.50.348,ranlexdec,2020.2.5,Win32,60
,,,,,,,,,,,,left,1.269055,0,177,177,36,1,tröshet,KT147,nő,1989,17,2021-05-13_10h48.50.348,ranlexdec,2020.2.5,Win32,60
,,,,,,,,,,,,left,1.06435,0,178,178,204,1,kocskesi,KT147,nő,1989,17,2021-05-13_10h48.50.348,ranlexdec,2020.2.5,Win32,60
,,,,,,,,,,,,left,2.59905,0,179,179,112,1,méhezter,KT147,nő,1989,17,2021-05-13_10h48.50.348,ranlexdec,2020.2.5,Win32,60
,,,,,,,,,,,,right,0.75349,0,180,180,48,1,reagál,KT147,nő,1989,17,2021-05-13_10h48.50.348,ranlexdec,2020.2.5,Win32,60
,,,,,,,,,,,,right,0.56368,0,181,181,213,1,eszköz,KT147,nő,1989,17,2021-05-13_10h48.50.348,ranlexdec,2020.2.5,Win32,60
,,,,,,,,,,,,right,0.90874,0,182,182,202,1,abszint,KT147,nő,1989,17,2021-05-13_10h48.50.348,ranlexdec,2020.2.5,Win32,60
,,,,,,,,,,,,left,0.8301,0,183,183,134,1,móringol,KT147,nő,1989,17,2021-05-13_10h48.50.348,ranlexdec,2020.2.5,Win32,60
,,,,,,,,,,,,right,1.012805,0,184,184,149,1,anorák,KT147,nő,1989,17,2021-05-13_10h48.50.348,ranlexdec,2020.2.5,Win32,60
,,,,,,,,,,,,right,0.60686,0,185,185,58,1,barát,KT147,nő,1989,17,2021-05-13_10h48.50.348,ranlexdec,2020.2.5,Win32,60
,,,,,,,,,,,,right,1.30699,0,186,186,63,1,viszkózus,KT147,nő,1989,17,2021-05-13_10h48.50.348,ranlexdec,2020.2.5,Win32,60
,,,,,,,,,,,,right,0.629345,0,187,187,165,1,lépték,KT147,nő,1989,17,2021-05-13_10h48.50.348,ranlexdec,2020.2.5,Win32,60
,,,,,,,,,,,,right,0.678845,0,188,188,53,1,puritán,KT147,nő,1989,17,2021-05-13_10h48.50.348,ranlexdec,2020.2.5,Win32,60
,,,,,,,,,,,,left,1.3784,0,189,189,60,1,bárányfark,KT147,nő,1989,17,2021-05-13_10h48.50.348,ranlexdec,2020.2.5,Win32,60
,,,,,,,,,,,,left,2.084125,0,190,190,181,1,dohorpák,KT147,nő,1989,17,2021-05-13_10h48.50.348,ranlexdec,2020.2.5,Win32,60
,,,,,,,,,,,,right,0.785635,0,191,191,33,1,kalcium,KT147,nő,1989,17,2021-05-13_10h48.50.348,ranlexdec,2020.2.5,Win32,60
,,,,,,,,,,,,left,2.70533,0,192,192,242,1,rekvizit,KT147,nő,1989,17,2021-05-13_10h48.50.348,ranlexdec,2020.2.5,Win32,60
,,,,,,,,,,,,right,0.604715,0,193,193,208,1,lélek,KT147,nő,1989,17,2021-05-13_10h48.50.348,ranlexdec,2020.2.5,Win32,60
,,,,,,,,,,,,left,1.222195,0,194,194,77,1,egant,KT147,nő,1989,17,2021-05-13_10h48.50.348,ranlexdec,2020.2.5,Win32,60
,,,,,,,,,,,,right,0.692485,0,195,195,211,1,tábornagy,KT147,nő,1989,17,2021-05-13_10h48.50.348,ranlexdec,2020.2.5,Win32,60
,,,,,,,,,,,,right,0.762645,0,196,196,73,1,olaj,KT147,nő,1989,17,2021-05-13_10h48.50.348,ranlexdec,2020.2.5,Win32,60
,,,,,,,,,,,,right,0.930945,0,197,197,9,1,hajlik,KT147,nő,1989,17,2021-05-13_10h48.50.348,ranlexdec,2020.2.5,Win32,60
,,,,,,,,,,,,right,0.622845,0,198,198,89,1,szokik,KT147,nő,1989,17,2021-05-13_10h48.50.348,ranlexdec,2020.2.5,Win32,60
,,,,,,,,,,,,left,0.783985,0,199,199,83,1,vonzum,KT147,nő,1989,17,2021-05-13_10h48.50.348,ranlexdec,2020.2.5,Win32,60
,,,,,,,,,,,,left,1.72142,0,200,200,40,1,diviz,KT147,nő,1989,17,2021-05-13_10h48.50.348,ranlexdec,2020.2.5,Win32,60
,,,,,,,,,,,,right,1.01733,0,201,201,115,1,fajansz,KT147,nő,1989,17,2021-05-13_10h48.50.348,ranlexdec,2020.2.5,Win32,60
,,,,,,,,,,,,right,0.840715,0,202,202,13,1,törköly,KT147,nő,1989,17,2021-05-13_10h48.50.348,ranlexdec,2020.2.5,Win32,60
,,,,,,,,,,,,left,0.829785,0,203,203,207,1,diffamál,KT147,nő,1989,17,2021-05-13_10h48.50.348,ranlexdec,2020.2.5,Win32,60
,,,,,,,,,,,,right,0.64436,0,204,204,159,1,elegy,KT147,nő,1989,17,2021-05-13_10h48.50.348,ranlexdec,2020.2.5,Win32,60
,,,,,,,,,,,,right,0.792215,0,205,205,201,1,szempont,KT147,nő,1989,17,2021-05-13_10h48.50.348,ranlexdec,2020.2.5,Win32,60
,,,,,,,,,,,,left,1.19299,0,206,206,102,1,pentez,KT147,nő,1989,17,2021-05-13_10h48.50.348,ranlexdec,2020.2.5,Win32,60
,,,,,,,,,,,,right,0.7833,0,207,207,3,1,tömzsa,KT147,nő,1989,17,2021-05-13_10h48.50.348,ranlexdec,2020.2.5,Win32,60
,,,,,,,,,,,,right,0.73341,0,208,208,116,1,árus,KT147,nő,1989,17,2021-05-13_10h48.50.348,ranlexdec,2020.2.5,Win32,60
,,,,,,,,,,,,right,0.832675,0,209,209,39,1,könnyelmű,KT147,nő,1989,17,2021-05-13_10h48.50.348,ranlexdec,2020.2.5,Win32,60
,,,,,,,,,,,,left,1.112365,0,210,210,1,1,csapdáz,KT147,nő,1989,17,2021-05-13_10h48.50.348,ranlexdec,2020.2.5,Win32,60
,,,,,,,,,,,,left,1.390995,0,211,211,93,1,kilukát,KT147,nő,1989,17,2021-05-13_10h48.50.348,ranlexdec,2020.2.5,Win32,60
,,,,,,,,,,,,right,0.86844,0,212,212,130,1,derít,KT147,nő,1989,17,2021-05-13_10h48.50.348,ranlexdec,2020.2.5,Win32,60
,,,,,,,,,,,,left,0.96419,0,213,213,23,1,szelégül,KT147,nő,1989,17,2021-05-13_10h48.50.348,ranlexdec,2020.2.5,Win32,60
,,,,,,,,,,,,right,0.83236,0,214,214,187,1,testnedv,KT147,nő,1989,17,2021-05-13_10h48.50.348,ranlexdec,2020.2.5,Win32,60
,,,,,,,,,,,,right,0.77446,0,215,215,160,1,százalék,KT147,nő,1989,17,2021-05-13_10h48.50.348,ranlexdec,2020.2.5,Win32,60
,,,,,,,,,,,,right,5.002495,0,216,216,249,1,kencéz,KT147,nő,1989,17,2021-05-13_10h48.50.348,ranlexdec,2020.2.5,Win32,60
,,,,,,,,,,,,right,6.48527,0,217,217,193,1,bacon,KT147,nő,1989,17,2021-05-13_10h48.50.348,ranlexdec,2020.2.5,Win32,60
,,,,,,,,,,,,right,0.699095,0,218,218,0,1,irány,KT147,nő,1989,17,2021-05-13_10h48.50.348,ranlexdec,2020.2.5,Win32,60
,,,,,,,,,,,,right,0.56546,0,219,219,214,1,tenger,KT147,nő,1989,17,2021-05-13_10h48.50.348,ranlexdec,2020.2.5,Win32,60
,,,,,,,,,,,,right,1.06884,0,220,220,169,1,komoly,KT147,nő,1989,17,2021-05-13_10h48.50.348,ranlexdec,2020.2.5,Win32,60
,,,,,,,,,,,,right,0.75483,0,221,221,85,1,glükóz,KT147,nő,1989,17,2021-05-13_10h48.50.348,ranlexdec,2020.2.5,Win32,60
,,,,,,,,,,,,left,0.86847,0,222,222,125,1,úszamos,KT147,nő,1989,17,2021-05-13_10h48.50.348,ranlexdec,2020.2.5,Win32,60
,,,,,,,,,,,,left,1.62481,0,223,223,91,1,tajtásos,KT147,nő,1989,17,2021-05-13_10h48.50.348,ranlexdec,2020.2.5,Win32,60
,,,,,,,,,,,,right,0.66823,0,224,224,43,1,közhely,KT147,nő,1989,17,2021-05-13_10h48.50.348,ranlexdec,2020.2.5,Win32,60
,,,,,,,,,,,,left,1.0004,0,225,225,5,1,retta,KT147,nő,1989,17,2021-05-13_10h48.50.348,ranlexdec,2020.2.5,Win32,60
,,,,,,,,,,,,left,1.81465,0,226,226,216,1,svábtök,KT147,nő,1989,17,2021-05-13_10h48.50.348,ranlexdec,2020.2.5,Win32,60
,,,,,,,,,,,,right,1.299615,0,227,227,220,1,csontdarab,KT147,nő,1989,17,2021-05-13_10h48.50.348,ranlexdec,2020.2.5,Win32,60
,,,,,,,,,,,,right,1.525685,0,228,228,19,1,tangózik,KT147,nő,1989,17,2021-05-13_10h48.50.348,ranlexdec,2020.2.5,Win32,60
,,,,,,,,,,,,left,2.92365,0,229,229,229,1,lemesség,KT147,nő,1989,17,2021-05-13_10h48.50.348,ranlexdec,2020.2.5,Win32,60
,,,,,,,,,,,,right,0.635875,0,230,230,154,1,keresztény,KT147,nő,1989,17,2021-05-13_10h48.50.348,ranlexdec,2020.2.5,Win32,60
,,,,,,,,,,,,right,2.081085,0,231,231,7,1,űrlap,KT147,nő,1989,17,2021-05-13_10h48.50.348,ranlexdec,2020.2.5,Win32,60
,,,,,,,,,,,,right,0.85366,0,232,232,10,1,nárcisz,KT147,nő,1989,17,2021-05-13_10h48.50.348,ranlexdec,2020.2.5,Win32,60
,,,,,,,,,,,,right,1.113015,0,233,233,123,1,luftballon,KT147,nő,1989,17,2021-05-13_10h48.50.348,ranlexdec,2020.2.5,Win32,60
,,,,,,,,,,,,left,1.42381,0,234,234,217,1,ifjít,KT147,nő,1989,17,2021-05-13_10h48.50.348,ranlexdec,2020.2.5,Win32,60
,,,,,,,,,,,,right,2.987335,0,235,235,223,1,árstop,KT147,nő,1989,17,2021-05-13_10h48.50.348,ranlexdec,2020.2.5,Win32,60
,,,,,,,,,,,,right,0.60157,0,236,236,227,1,kötődik,KT147,nő,1989,17,2021-05-13_10h48.50.348,ranlexdec,2020.2.5,Win32,60
,,,,,,,,,,,,left,0.736775,0,237,237,52,1,kunyai,KT147,nő,1989,17,2021-05-13_10h48.50.348,ranlexdec,2020.2.5,Win32,60
,,,,,,,,,,,,right,0.6749,0,238,238,168,1,grafikon,KT147,nő,1989,17,2021-05-13_10h48.50.348,ranlexdec,2020.2.5,Win32,60
,,,,,,,,,,,,right,1.51325,0,239,239,68,1,kitin,KT147,nő,1989,17,2021-05-13_10h48.50.348,ranlexdec,2020.2.5,Win32,60
,,,,,,,,,,,,left,0.80389,0,240,240,49,1,ernyak,KT147,nő,1989,17,2021-05-13_10h48.50.348,ranlexdec,2020.2.5,Win32,60
,,,,,,,,,,,,right,1.255475,0,241,241,145,1,kurtít,KT147,nő,1989,17,2021-05-13_10h48.50.348,ranlexdec,2020.2.5,Win32,60
,,,,,,,,,,,,left,7.19861,0,242,242,121,1,aggófű,KT147,nő,1989,17,2021-05-13_10h48.50.348,ranlexdec,2020.2.5,Win32,60
,,,,,,,,,,,,right,1.407665,0,243,243,111,1,koenzim,KT147,nő,1989,17,2021-05-13_10h48.50.348,ranlexdec,2020.2.5,Win32,60
,,,,,,,,,,,,right,0.73058,0,244,244,25,1,reform,KT147,nő,1989,17,2021-05-13_10h48.50.348,ranlexdec,2020.2.5,Win32,60
,,,,,,,,,,,,left,0.65707,0,245,245,57,1,lejmol,KT147,nő,1989,17,2021-05-13_10h48.50.348,ranlexdec,2020.2.5,Win32,60
,,,,,,,,,,,,right,1.08227,0,246,246,113,1,piktogram,KT147,nő,1989,17,2021-05-13_10h48.50.348,ranlexdec,2020.2.5,Win32,60
,,,,,,,,,,,,right,0.94772,0,247,247,117,1,ószeven,KT147,nő,1989,17,2021-05-13_10h48.50.348,ranlexdec,2020.2.5,Win32,60
,,,,,,,,,,,,left,8.911815,0,248,248,218,1,tortya,KT147,nő,1989,17,2021-05-13_10h48.50.348,ranlexdec,2020.2.5,Win32,60
,,,,,,,,,,,,left,2.508845,0,249,249,127,1,rozintem,KT147,nő,1989,17,2021-05-13_10h48.50.348,ranlexdec,2020.2.5,Win32,60
