ready2_2.keys,ready2_2.rt,ready2.keys,ready2.rt,key_resp.keys,key_resp.rt,key_resp_3.keys,key_resp_3.rt,key_resp_2.keys,key_resp_2.rt,ready3.keys,ready3.rt,resp.keys,resp.rt,withinBlock.thisRepN,withinBlock.thisTrialN,withinBlock.thisN,withinBlock.thisIndex,withinBlock.ran,word,Azonosító,Az Ön neme,Születési éve,Hány évet töltött az iskolapadban (egyetemet is beleértve),date,expName,psychopyVersion,OS,frameRate
right,44.532815,right,40.65645,right,2.337725,left,0.937465,left,2.53606,right,16.923455,right,1.74865,0,0,0,99,1,sárgaréz,KT 130,nő,2000,13,2021-05-13_09h42.50.919,ranlexdec,2020.2.5,Win32,60
,,,,,,,,,,,,right,1.33317,0,1,1,40,1,diviz,KT 130,nő,2000,13,2021-05-13_09h42.50.919,ranlexdec,2020.2.5,Win32,60
,,,,,,,,,,,,right,3.223665,0,2,2,220,1,csontdarab,KT 130,nő,2000,13,2021-05-13_09h42.50.919,ranlexdec,2020.2.5,Win32,60
,,,,,,,,,,,,left,1.97381,0,3,3,27,1,sporthorgász,KT 130,nő,2000,13,2021-05-13_09h42.50.919,ranlexdec,2020.2.5,Win32,60
,,,,,,,,,,,,right,1.54441,0,4,4,9,1,hajlik,KT 130,nő,2000,13,2021-05-13_09h42.50.919,ranlexdec,2020.2.5,Win32,60
,,,,,,,,,,,,right,0.88288,0,5,5,79,1,extrém,KT 130,nő,2000,13,2021-05-13_09h42.50.919,ranlexdec,2020.2.5,Win32,60
,,,,,,,,,,,,left,1.276685,0,6,6,224,1,truccol,KT 130,nő,2000,13,2021-05-13_09h42.50.919,ranlexdec,2020.2.5,Win32,60
,,,,,,,,,,,,right,1.186315,0,7,7,170,1,változik,KT 130,nő,2000,13,2021-05-13_09h42.50.919,ranlexdec,2020.2.5,Win32,60
,,,,,,,,,,,,left,1.27077,0,8,8,195,1,petél,KT 130,nő,2000,13,2021-05-13_09h42.50.919,ranlexdec,2020.2.5,Win32,60
,,,,,,,,,,,,right,1.00682,0,9,9,20,1,század,KT 130,nő,2000,13,2021-05-13_09h42.50.919,ranlexdec,2020.2.5,Win32,60
,,,,,,,,,,,,right,0.9666,0,10,10,184,1,profit,KT 130,nő,2000,13,2021-05-13_09h42.50.919,ranlexdec,2020.2.5,Win32,60
,,,,,,,,,,,,right,1.16996,0,11,11,221,1,törődik,KT 130,nő,2000,13,2021-05-13_09h42.50.919,ranlexdec,2020.2.5,Win32,60
,,,,,,,,,,,,left,1.101675,0,12,12,118,1,libling,KT 130,nő,2000,13,2021-05-13_09h42.50.919,ranlexdec,2020.2.5,Win32,60
,,,,,,,,,,,,right,1.633835,0,13,13,113,1,piktogram,KT 130,nő,2000,13,2021-05-13_09h42.50.919,ranlexdec,2020.2.5,Win32,60
,,,,,,,,,,,,left,1.086885,0,14,14,102,1,pentez,KT 130,nő,2000,13,2021-05-13_09h42.50.919,ranlexdec,2020.2.5,Win32,60
,,,,,,,,,,,,right,1.003075,0,15,15,88,1,pohár,KT 130,nő,2000,13,2021-05-13_09h42.50.919,ranlexdec,2020.2.5,Win32,60
,,,,,,,,,,,,left,2.520665,0,16,16,103,1,szabotró,KT 130,nő,2000,13,2021-05-13_09h42.50.919,ranlexdec,2020.2.5,Win32,60
,,,,,,,,,,,,left,2.268625,0,17,17,203,1,abeti,KT 130,nő,2000,13,2021-05-13_09h42.50.919,ranlexdec,2020.2.5,Win32,60
,,,,,,,,,,,,left,3.979395,0,18,18,97,1,vésségi,KT 130,nő,2000,13,2021-05-13_09h42.50.919,ranlexdec,2020.2.5,Win32,60
,,,,,,,,,,,,right,2.72145,0,19,19,223,1,árstop,KT 130,nő,2000,13,2021-05-13_09h42.50.919,ranlexdec,2020.2.5,Win32,60
,,,,,,,,,,,,left,1.03665,0,20,20,77,1,egant,KT 130,nő,2000,13,2021-05-13_09h42.50.919,ranlexdec,2020.2.5,Win32,60
,,,,,,,,,,,,right,1.18429,0,21,21,48,1,reagál,KT 130,nő,2000,13,2021-05-13_09h42.50.919,ranlexdec,2020.2.5,Win32,60
,,,,,,,,,,,,left,1.76735,0,22,22,52,1,kunyai,KT 130,nő,2000,13,2021-05-13_09h42.50.919,ranlexdec,2020.2.5,Win32,60
,,,,,,,,,,,,left,2.608205,0,23,23,233,1,templomoz,KT 130,nő,2000,13,2021-05-13_09h42.50.919,ranlexdec,2020.2.5,Win32,60
,,,,,,,,,,,,right,1.111715,0,24,24,86,1,jármű,KT 130,nő,2000,13,2021-05-13_09h42.50.919,ranlexdec,2020.2.5,Win32,60
,,,,,,,,,,,,left,1.86463,0,25,25,1,1,csapdáz,KT 130,nő,2000,13,2021-05-13_09h42.50.919,ranlexdec,2020.2.5,Win32,60
,,,,,,,,,,,,right,2.334415,0,26,26,211,1,tábornagy,KT 130,nő,2000,13,2021-05-13_09h42.50.919,ranlexdec,2020.2.5,Win32,60
,,,,,,,,,,,,left,1.758395,0,27,27,229,1,lemesség,KT 130,nő,2000,13,2021-05-13_09h42.50.919,ranlexdec,2020.2.5,Win32,60
,,,,,,,,,,,,right,1.44963,0,28,28,160,1,százalék,KT 130,nő,2000,13,2021-05-13_09h42.50.919,ranlexdec,2020.2.5,Win32,60
,,,,,,,,,,,,right,2.27433,0,29,29,54,1,fürkész,KT 130,nő,2000,13,2021-05-13_09h42.50.919,ranlexdec,2020.2.5,Win32,60
,,,,,,,,,,,,right,1.257865,0,30,30,227,1,kötődik,KT 130,nő,2000,13,2021-05-13_09h42.50.919,ranlexdec,2020.2.5,Win32,60
,,,,,,,,,,,,left,1.48715,0,31,31,139,1,vároló,KT 130,nő,2000,13,2021-05-13_09h42.50.919,ranlexdec,2020.2.5,Win32,60
,,,,,,,,,,,,left,2.43203,0,32,32,237,1,forgórész,KT 130,nő,2000,13,2021-05-13_09h42.50.919,ranlexdec,2020.2.5,Win32,60
,,,,,,,,,,,,left,2.19826,0,33,33,127,1,rozintem,KT 130,nő,2000,13,2021-05-13_09h42.50.919,ranlexdec,2020.2.5,Win32,60
,,,,,,,,,,,,right,1.282045,0,34,34,169,1,komoly,KT 130,nő,2000,13,2021-05-13_09h42.50.919,ranlexdec,2020.2.5,Win32,60
,,,,,,,,,,,,right,2.20532,0,35,35,136,1,rücsök,KT 130,nő,2000,13,2021-05-13_09h42.50.919,ranlexdec,2020.2.5,Win32,60
,,,,,,,,,,,,right,2.732305,0,36,36,4,1,viszonvád,KT 130,nő,2000,13,2021-05-13_09h42.50.919,ranlexdec,2020.2.5,Win32,60
,,,,,,,,,,,,right,1.387905,0,37,37,185,1,gyülemlik,KT 130,nő,2000,13,2021-05-13_09h42.50.919,ranlexdec,2020.2.5,Win32,60
,,,,,,,,,,,,left,2.098885,0,38,38,157,1,káder,KT 130,nő,2000,13,2021-05-13_09h42.50.919,ranlexdec,2020.2.5,Win32,60
,,,,,,,,,,,,right,2.037965,0,39,39,248,1,örmény,KT 130,nő,2000,13,2021-05-13_09h42.50.919,ranlexdec,2020.2.5,Win32,60
,,,,,,,,,,,,left,1.982535,0,40,40,93,1,kilukát,KT 130,nő,2000,13,2021-05-13_09h42.50.919,ranlexdec,2020.2.5,Win32,60
,,,,,,,,,,,,right,1.01801,0,41,41,178,1,sziszeg,KT 130,nő,2000,13,2021-05-13_09h42.50.919,ranlexdec,2020.2.5,Win32,60
,,,,,,,,,,,,right,0.723935,0,42,42,244,1,kislány,KT 130,nő,2000,13,2021-05-13_09h42.50.919,ranlexdec,2020.2.5,Win32,60
,,,,,,,,,,,,left,2.03096,0,43,43,192,1,norvend,KT 130,nő,2000,13,2021-05-13_09h42.50.919,ranlexdec,2020.2.5,Win32,60
,,,,,,,,,,,,right,1.19917,0,44,44,247,1,ausztrál,KT 130,nő,2000,13,2021-05-13_09h42.50.919,ranlexdec,2020.2.5,Win32,60
,,,,,,,,,,,,left,1.77454,0,45,45,134,1,móringol,KT 130,nő,2000,13,2021-05-13_09h42.50.919,ranlexdec,2020.2.5,Win32,60
,,,,,,,,,,,,right,0.842325,0,46,46,73,1,olaj,KT 130,nő,2000,13,2021-05-13_09h42.50.919,ranlexdec,2020.2.5,Win32,60
,,,,,,,,,,,,right,1.694145,0,47,47,147,1,referál,KT 130,nő,2000,13,2021-05-13_09h42.50.919,ranlexdec,2020.2.5,Win32,60
,,,,,,,,,,,,left,1.132625,0,48,48,84,1,kúpol,KT 130,nő,2000,13,2021-05-13_09h42.50.919,ranlexdec,2020.2.5,Win32,60
,,,,,,,,,,,,right,1.482795,0,49,49,193,1,bacon,KT 130,nő,2000,13,2021-05-13_09h42.50.919,ranlexdec,2020.2.5,Win32,60
,,,,,,,,,,,,right,2.094515,0,50,50,6,1,csüggeszt,KT 130,nő,2000,13,2021-05-13_09h42.50.919,ranlexdec,2020.2.5,Win32,60
,,,,,,,,,,,,right,3.44696,0,51,51,123,1,luftballon,KT 130,nő,2000,13,2021-05-13_09h42.50.919,ranlexdec,2020.2.5,Win32,60
,,,,,,,,,,,,right,1.41059,0,52,52,32,1,genom,KT 130,nő,2000,13,2021-05-13_09h42.50.919,ranlexdec,2020.2.5,Win32,60
,,,,,,,,,,,,right,0.856335,0,53,53,12,1,gyapot,KT 130,nő,2000,13,2021-05-13_09h42.50.919,ranlexdec,2020.2.5,Win32,60
,,,,,,,,,,,,left,2.598335,0,54,54,42,1,összalaj,KT 130,nő,2000,13,2021-05-13_09h42.50.919,ranlexdec,2020.2.5,Win32,60
,,,,,,,,,,,,right,0.794035,0,55,55,28,1,gazdag,KT 130,nő,2000,13,2021-05-13_09h42.50.919,ranlexdec,2020.2.5,Win32,60
,,,,,,,,,,,,right,0.7414,0,56,56,7,1,űrlap,KT 130,nő,2000,13,2021-05-13_09h42.50.919,ranlexdec,2020.2.5,Win32,60
,,,,,,,,,,,,left,2.164905,0,57,57,222,1,nyersarany,KT 130,nő,2000,13,2021-05-13_09h42.50.919,ranlexdec,2020.2.5,Win32,60
,,,,,,,,,,,,left,1.63657,0,58,58,249,1,kencéz,KT 130,nő,2000,13,2021-05-13_09h42.50.919,ranlexdec,2020.2.5,Win32,60
,,,,,,,,,,,,right,1.732345,0,59,59,35,1,türemlik,KT 130,nő,2000,13,2021-05-13_09h42.50.919,ranlexdec,2020.2.5,Win32,60
,,,,,,,,,,,,left,2.902485,0,60,60,124,1,alkalom,KT 130,nő,2000,13,2021-05-13_09h42.50.919,ranlexdec,2020.2.5,Win32,60
,,,,,,,,,,,,right,4.18759,0,61,61,235,1,transzplantál,KT 130,nő,2000,13,2021-05-13_09h42.50.919,ranlexdec,2020.2.5,Win32,60
,,,,,,,,,,,,right,0.76213,0,62,62,214,1,tenger,KT 130,nő,2000,13,2021-05-13_09h42.50.919,ranlexdec,2020.2.5,Win32,60
,,,,,,,,,,,,right,1.05383,0,63,63,230,1,délceg,KT 130,nő,2000,13,2021-05-13_09h42.50.919,ranlexdec,2020.2.5,Win32,60
,,,,,,,,,,,,right,1.378195,0,64,64,226,1,szalicil,KT 130,nő,2000,13,2021-05-13_09h42.50.919,ranlexdec,2020.2.5,Win32,60
,,,,,,,,,,,,left,1.243525,0,65,65,47,1,döföl,KT 130,nő,2000,13,2021-05-13_09h42.50.919,ranlexdec,2020.2.5,Win32,60
,,,,,,,,,,,,right,1.05768,0,66,66,135,1,ion,KT 130,nő,2000,13,2021-05-13_09h42.50.919,ranlexdec,2020.2.5,Win32,60
,,,,,,,,,,,,left,1.902535,0,67,67,207,1,diffamál,KT 130,nő,2000,13,2021-05-13_09h42.50.919,ranlexdec,2020.2.5,Win32,60
,,,,,,,,,,,,left,2.068265,0,68,68,209,1,hidegház,KT 130,nő,2000,13,2021-05-13_09h42.50.919,ranlexdec,2020.2.5,Win32,60
,,,,,,,,,,,,right,0.933195,0,69,69,246,1,beton,KT 130,nő,2000,13,2021-05-13_09h42.50.919,ranlexdec,2020.2.5,Win32,60
,,,,,,,,,,,,left,2.272265,0,70,70,76,1,jegedény,KT 130,nő,2000,13,2021-05-13_09h42.50.919,ranlexdec,2020.2.5,Win32,60
,,,,,,,,,,,,left,1.249555,0,71,71,150,1,orront,KT 130,nő,2000,13,2021-05-13_09h42.50.919,ranlexdec,2020.2.5,Win32,60
,,,,,,,,,,,,right,2.038355,0,72,72,19,1,tangózik,KT 130,nő,2000,13,2021-05-13_09h42.50.919,ranlexdec,2020.2.5,Win32,60
,,,,,,,,,,,,right,1.257865,0,73,73,21,1,heveny,KT 130,nő,2000,13,2021-05-13_09h42.50.919,ranlexdec,2020.2.5,Win32,60
,,,,,,,,,,,,left,1.14986,0,74,74,175,1,szilikát,KT 130,nő,2000,13,2021-05-13_09h42.50.919,ranlexdec,2020.2.5,Win32,60
,,,,,,,,,,,,left,2.250605,0,75,75,71,1,extuál,KT 130,nő,2000,13,2021-05-13_09h42.50.919,ranlexdec,2020.2.5,Win32,60
,,,,,,,,,,,,right,1.767715,0,76,76,189,1,konverzál,KT 130,nő,2000,13,2021-05-13_09h42.50.919,ranlexdec,2020.2.5,Win32,60
,,,,,,,,,,,,right,1.11575,0,77,77,8,1,kulcscsont,KT 130,nő,2000,13,2021-05-13_09h42.50.919,ranlexdec,2020.2.5,Win32,60
,,,,,,,,,,,,left,2.29519,0,78,78,216,1,svábtök,KT 130,nő,2000,13,2021-05-13_09h42.50.919,ranlexdec,2020.2.5,Win32,60
,,,,,,,,,,,,right,0.96602,0,79,79,183,1,színpad,KT 130,nő,2000,13,2021-05-13_09h42.50.919,ranlexdec,2020.2.5,Win32,60
,,,,,,,,,,,,right,5.223485,0,80,80,186,1,piláf,KT 130,nő,2000,13,2021-05-13_09h42.50.919,ranlexdec,2020.2.5,Win32,60
,,,,,,,,,,,,right,1.72261,0,81,81,130,1,derít,KT 130,nő,2000,13,2021-05-13_09h42.50.919,ranlexdec,2020.2.5,Win32,60
,,,,,,,,,,,,right,1.974745,0,82,82,122,1,égitest,KT 130,nő,2000,13,2021-05-13_09h42.50.919,ranlexdec,2020.2.5,Win32,60
,,,,,,,,,,,,right,1.06585,0,83,83,161,1,példakép,KT 130,nő,2000,13,2021-05-13_09h42.50.919,ranlexdec,2020.2.5,Win32,60
,,,,,,,,,,,,right,0.96074,0,84,84,241,1,kárpit,KT 130,nő,2000,13,2021-05-13_09h42.50.919,ranlexdec,2020.2.5,Win32,60
,,,,,,,,,,,,right,1.42406,0,85,85,168,1,grafikon,KT 130,nő,2000,13,2021-05-13_09h42.50.919,ranlexdec,2020.2.5,Win32,60
,,,,,,,,,,,,right,0.76653,0,86,86,55,1,látszik,KT 130,nő,2000,13,2021-05-13_09h42.50.919,ranlexdec,2020.2.5,Win32,60
,,,,,,,,,,,,right,2.188755,0,87,87,232,1,tropikus,KT 130,nő,2000,13,2021-05-13_09h42.50.919,ranlexdec,2020.2.5,Win32,60
,,,,,,,,,,,,right,0.916785,0,88,88,30,1,dádá,KT 130,nő,2000,13,2021-05-13_09h42.50.919,ranlexdec,2020.2.5,Win32,60
,,,,,,,,,,,,right,0.85229,0,89,89,140,1,diktátor,KT 130,nő,2000,13,2021-05-13_09h42.50.919,ranlexdec,2020.2.5,Win32,60
,,,,,,,,,,,,left,2.56394,0,90,90,142,1,storítő,KT 130,nő,2000,13,2021-05-13_09h42.50.919,ranlexdec,2020.2.5,Win32,60
,,,,,,,,,,,,right,1.040155,0,91,91,129,1,turné,KT 130,nő,2000,13,2021-05-13_09h42.50.919,ranlexdec,2020.2.5,Win32,60
,,,,,,,,,,,,right,0.886555,0,92,92,61,1,régész,KT 130,nő,2000,13,2021-05-13_09h42.50.919,ranlexdec,2020.2.5,Win32,60
,,,,,,,,,,,,right,2.176705,0,93,93,199,1,ború,KT 130,nő,2000,13,2021-05-13_09h42.50.919,ranlexdec,2020.2.5,Win32,60
,,,,,,,,,,,,right,2.609685,0,94,94,64,1,hálózsák,KT 130,nő,2000,13,2021-05-13_09h42.50.919,ranlexdec,2020.2.5,Win32,60
,,,,,,,,,,,,right,1.502495,0,95,95,239,1,donhuán,KT 130,nő,2000,13,2021-05-13_09h42.50.919,ranlexdec,2020.2.5,Win32,60
,,,,,,,,,,,,left,2.34987,0,96,96,75,1,karnogó,KT 130,nő,2000,13,2021-05-13_09h42.50.919,ranlexdec,2020.2.5,Win32,60
,,,,,,,,,,,,left,2.231635,0,97,97,50,1,csenyei,KT 130,nő,2000,13,2021-05-13_09h42.50.919,ranlexdec,2020.2.5,Win32,60
,,,,,,,,,,,,left,4.397975,0,98,98,18,1,csapattest,KT 130,nő,2000,13,2021-05-13_09h42.50.919,ranlexdec,2020.2.5,Win32,60
,,,,,,,,,,,,left,2.686325,0,99,99,153,1,kontrapunkt,KT 130,nő,2000,13,2021-05-13_09h42.50.919,ranlexdec,2020.2.5,Win32,60
,,,,,,,,,,,,right,0.88418,0,100,100,110,1,időszak,KT 130,nő,2000,13,2021-05-13_09h42.50.919,ranlexdec,2020.2.5,Win32,60
,,,,,,,,,,,,right,0.858905,0,101,101,98,1,mítosz,KT 130,nő,2000,13,2021-05-13_09h42.50.919,ranlexdec,2020.2.5,Win32,60
,,,,,,,,,,,,right,1.760635,0,102,102,39,1,könnyelmű,KT 130,nő,2000,13,2021-05-13_09h42.50.919,ranlexdec,2020.2.5,Win32,60
,,,,,,,,,,,,left,1.66558,0,103,103,173,1,glosszáz,KT 130,nő,2000,13,2021-05-13_09h42.50.919,ranlexdec,2020.2.5,Win32,60
,,,,,,,,,,,,left,2.78719,0,104,104,26,1,aurult,KT 130,nő,2000,13,2021-05-13_09h42.50.919,ranlexdec,2020.2.5,Win32,60
,,,,,,,,,,,,left,1.160935,0,105,105,141,1,hider,KT 130,nő,2000,13,2021-05-13_09h42.50.919,ranlexdec,2020.2.5,Win32,60
,,,,,,,,,,,,left,0.88257,0,106,106,94,1,rotor,KT 130,nő,2000,13,2021-05-13_09h42.50.919,ranlexdec,2020.2.5,Win32,60
,,,,,,,,,,,,right,1.59911,0,107,107,56,1,kanalaz,KT 130,nő,2000,13,2021-05-13_09h42.50.919,ranlexdec,2020.2.5,Win32,60
,,,,,,,,,,,,right,1.4854,0,108,108,179,1,töredék,KT 130,nő,2000,13,2021-05-13_09h42.50.919,ranlexdec,2020.2.5,Win32,60
,,,,,,,,,,,,left,1.510975,0,109,109,108,1,konyrúd,KT 130,nő,2000,13,2021-05-13_09h42.50.919,ranlexdec,2020.2.5,Win32,60
,,,,,,,,,,,,left,1.836165,0,110,110,181,1,dohorpák,KT 130,nő,2000,13,2021-05-13_09h42.50.919,ranlexdec,2020.2.5,Win32,60
,,,,,,,,,,,,left,3.04113,0,111,111,66,1,parkkói,KT 130,nő,2000,13,2021-05-13_09h42.50.919,ranlexdec,2020.2.5,Win32,60
,,,,,,,,,,,,right,1.37316,0,112,112,37,1,lukaszt,KT 130,nő,2000,13,2021-05-13_09h42.50.919,ranlexdec,2020.2.5,Win32,60
,,,,,,,,,,,,right,2.19025,0,113,113,182,1,nagyszámú,KT 130,nő,2000,13,2021-05-13_09h42.50.919,ranlexdec,2020.2.5,Win32,60
,,,,,,,,,,,,left,2.15567,0,114,114,156,1,lazúroz,KT 130,nő,2000,13,2021-05-13_09h42.50.919,ranlexdec,2020.2.5,Win32,60
,,,,,,,,,,,,right,1.044585,0,115,115,58,1,barát,KT 130,nő,2000,13,2021-05-13_09h42.50.919,ranlexdec,2020.2.5,Win32,60
,,,,,,,,,,,,right,3.134685,0,116,116,11,1,viszkóz,KT 130,nő,2000,13,2021-05-13_09h42.50.919,ranlexdec,2020.2.5,Win32,60
,,,,,,,,,,,,right,2.016005,0,117,117,242,1,rekvizit,KT 130,nő,2000,13,2021-05-13_09h42.50.919,ranlexdec,2020.2.5,Win32,60
,,,,,,,,,,,,left,2.53571,0,118,118,197,1,krakéler,KT 130,nő,2000,13,2021-05-13_09h42.50.919,ranlexdec,2020.2.5,Win32,60
,,,,,,,,,,,,left,2.68369,0,119,119,2,1,gyásos,KT 130,nő,2000,13,2021-05-13_09h42.50.919,ranlexdec,2020.2.5,Win32,60
,,,,,,,,,,,,left,1.848615,0,120,120,119,1,cugehőr,KT 130,nő,2000,13,2021-05-13_09h42.50.919,ranlexdec,2020.2.5,Win32,60
,,,,,,,,,,,,right,1.412755,0,121,121,159,1,elegy,KT 130,nő,2000,13,2021-05-13_09h42.50.919,ranlexdec,2020.2.5,Win32,60
,,,,,,,,,,,,right,2.44827,0,122,122,14,1,selypít,KT 130,nő,2000,13,2021-05-13_09h42.50.919,ranlexdec,2020.2.5,Win32,60
,,,,,,,,,,,,right,1.019375,0,123,123,67,1,szegény,KT 130,nő,2000,13,2021-05-13_09h42.50.919,ranlexdec,2020.2.5,Win32,60
,,,,,,,,,,,,right,1.205275,0,124,124,68,1,kitin,KT 130,nő,2000,13,2021-05-13_09h42.50.919,ranlexdec,2020.2.5,Win32,60
,,,,,,,,,,,,right,0.816545,0,125,125,206,1,horizont,KT 130,nő,2000,13,2021-05-13_09h42.50.919,ranlexdec,2020.2.5,Win32,60
,,,,,,,,,,,,right,1.18866,0,126,126,143,1,rojtoz,KT 130,nő,2000,13,2021-05-13_09h42.50.919,ranlexdec,2020.2.5,Win32,60
,,,,,,,,,,,,right,0.732805,0,127,127,80,1,darab,KT 130,nő,2000,13,2021-05-13_09h42.50.919,ranlexdec,2020.2.5,Win32,60
,,,,,,,,,,,,left,2.303405,0,128,128,72,1,mihálóz,KT 130,nő,2000,13,2021-05-13_09h42.50.919,ranlexdec,2020.2.5,Win32,60
,,,,,,,,,,,,right,0.836485,0,129,129,210,1,karakter,KT 130,nő,2000,13,2021-05-13_09h42.50.919,ranlexdec,2020.2.5,Win32,60
,,,,,,,,,,,,right,1.31609,0,130,130,215,1,neoprén,KT 130,nő,2000,13,2021-05-13_09h42.50.919,ranlexdec,2020.2.5,Win32,60
,,,,,,,,,,,,right,1.94015,0,131,131,82,1,kvéker,KT 130,nő,2000,13,2021-05-13_09h42.50.919,ranlexdec,2020.2.5,Win32,60
,,,,,,,,,,,,right,1.050145,0,132,132,53,1,puritán,KT 130,nő,2000,13,2021-05-13_09h42.50.919,ranlexdec,2020.2.5,Win32,60
,,,,,,,,,,,,right,0.677295,0,133,133,105,1,tököl,KT 130,nő,2000,13,2021-05-13_09h42.50.919,ranlexdec,2020.2.5,Win32,60
,,,,,,,,,,,,left,3.763595,0,134,134,81,1,takorák,KT 130,nő,2000,13,2021-05-13_09h42.50.919,ranlexdec,2020.2.5,Win32,60
,,,,,,,,,,,,left,2.55308,0,135,135,106,1,lalláz,KT 130,nő,2000,13,2021-05-13_09h42.50.919,ranlexdec,2020.2.5,Win32,60
,,,,,,,,,,,,right,2.03649,0,136,136,152,1,rakódik,KT 130,nő,2000,13,2021-05-13_09h42.50.919,ranlexdec,2020.2.5,Win32,60
,,,,,,,,,,,,right,3.163775,0,137,137,31,1,iszlám,KT 130,nő,2000,13,2021-05-13_09h42.50.919,ranlexdec,2020.2.5,Win32,60
,,,,,,,,,,,,right,0.886125,0,138,138,208,1,lélek,KT 130,nő,2000,13,2021-05-13_09h42.50.919,ranlexdec,2020.2.5,Win32,60
,,,,,,,,,,,,left,2.48187,0,139,139,23,1,szelégül,KT 130,nő,2000,13,2021-05-13_09h42.50.919,ranlexdec,2020.2.5,Win32,60
,,,,,,,,,,,,right,1.614675,0,140,140,34,1,csengettyű,KT 130,nő,2000,13,2021-05-13_09h42.50.919,ranlexdec,2020.2.5,Win32,60
,,,,,,,,,,,,right,1.843475,0,141,141,116,1,árus,KT 130,nő,2000,13,2021-05-13_09h42.50.919,ranlexdec,2020.2.5,Win32,60
,,,,,,,,,,,,left,2.574425,0,142,142,107,1,kelől,KT 130,nő,2000,13,2021-05-13_09h42.50.919,ranlexdec,2020.2.5,Win32,60
,,,,,,,,,,,,left,3.0989,0,143,143,225,1,bajadér,KT 130,nő,2000,13,2021-05-13_09h42.50.919,ranlexdec,2020.2.5,Win32,60
,,,,,,,,,,,,right,0.72015,0,144,144,201,1,szempont,KT 130,nő,2000,13,2021-05-13_09h42.50.919,ranlexdec,2020.2.5,Win32,60
,,,,,,,,,,,,left,0.789915,0,145,145,151,1,komplex,KT 130,nő,2000,13,2021-05-13_09h42.50.919,ranlexdec,2020.2.5,Win32,60
,,,,,,,,,,,,right,1.892725,0,146,146,149,1,anorák,KT 130,nő,2000,13,2021-05-13_09h42.50.919,ranlexdec,2020.2.5,Win32,60
,,,,,,,,,,,,right,2.419635,0,147,147,100,1,balközép,KT 130,nő,2000,13,2021-05-13_09h42.50.919,ranlexdec,2020.2.5,Win32,60
,,,,,,,,,,,,right,1.46671,0,148,148,231,1,igény,KT 130,nő,2000,13,2021-05-13_09h42.50.919,ranlexdec,2020.2.5,Win32,60
,,,,,,,,,,,,left,1.42706,0,149,149,198,1,lublika,KT 130,nő,2000,13,2021-05-13_09h42.50.919,ranlexdec,2020.2.5,Win32,60
,,,,,,,,,,,,right,1.34248,0,150,150,74,1,püffeszt,KT 130,nő,2000,13,2021-05-13_09h42.50.919,ranlexdec,2020.2.5,Win32,60
,,,,,,,,,,,,left,2.465415,0,151,151,125,1,úszamos,KT 130,nő,2000,13,2021-05-13_09h42.50.919,ranlexdec,2020.2.5,Win32,60
,,,,,,,,,,,,left,3.4757,0,152,152,204,1,kocskesi,KT 130,nő,2000,13,2021-05-13_09h42.50.919,ranlexdec,2020.2.5,Win32,60
,,,,,,,,,,,,right,1.01547,0,153,153,92,1,lágyék,KT 130,nő,2000,13,2021-05-13_09h42.50.919,ranlexdec,2020.2.5,Win32,60
,,,,,,,,,,,,right,1.296785,0,154,154,245,1,ellenfél,KT 130,nő,2000,13,2021-05-13_09h42.50.919,ranlexdec,2020.2.5,Win32,60
,,,,,,,,,,,,left,1.78555,0,155,155,83,1,vonzum,KT 130,nő,2000,13,2021-05-13_09h42.50.919,ranlexdec,2020.2.5,Win32,60
,,,,,,,,,,,,right,1.12197,0,156,156,187,1,testnedv,KT 130,nő,2000,13,2021-05-13_09h42.50.919,ranlexdec,2020.2.5,Win32,60
,,,,,,,,,,,,right,1.24677,0,157,157,236,1,csatázik,KT 130,nő,2000,13,2021-05-13_09h42.50.919,ranlexdec,2020.2.5,Win32,60
,,,,,,,,,,,,left,3.4515,0,158,158,36,1,tröshet,KT 130,nő,2000,13,2021-05-13_09h42.50.919,ranlexdec,2020.2.5,Win32,60
,,,,,,,,,,,,left,2.158585,0,159,159,172,1,kettősfém,KT 130,nő,2000,13,2021-05-13_09h42.50.919,ranlexdec,2020.2.5,Win32,60
,,,,,,,,,,,,right,1.376345,0,160,160,10,1,nárcisz,KT 130,nő,2000,13,2021-05-13_09h42.50.919,ranlexdec,2020.2.5,Win32,60
,,,,,,,,,,,,left,2.42809,0,161,161,112,1,méhezter,KT 130,nő,2000,13,2021-05-13_09h42.50.919,ranlexdec,2020.2.5,Win32,60
,,,,,,,,,,,,right,2.78098,0,162,162,145,1,kurtít,KT 130,nő,2000,13,2021-05-13_09h42.50.919,ranlexdec,2020.2.5,Win32,60
,,,,,,,,,,,,left,2.1359,0,163,163,164,1,kurzivál,KT 130,nő,2000,13,2021-05-13_09h42.50.919,ranlexdec,2020.2.5,Win32,60
,,,,,,,,,,,,right,0.99458,0,164,164,45,1,népszerű,KT 130,nő,2000,13,2021-05-13_09h42.50.919,ranlexdec,2020.2.5,Win32,60
,,,,,,,,,,,,right,1.070665,0,165,165,213,1,eszköz,KT 130,nő,2000,13,2021-05-13_09h42.50.919,ranlexdec,2020.2.5,Win32,60
,,,,,,,,,,,,right,1.34707,0,166,166,202,1,abszint,KT 130,nő,2000,13,2021-05-13_09h42.50.919,ranlexdec,2020.2.5,Win32,60
,,,,,,,,,,,,right,1.229675,0,167,167,0,1,irány,KT 130,nő,2000,13,2021-05-13_09h42.50.919,ranlexdec,2020.2.5,Win32,60
,,,,,,,,,,,,right,0.85257,0,168,168,154,1,keresztény,KT 130,nő,2000,13,2021-05-13_09h42.50.919,ranlexdec,2020.2.5,Win32,60
,,,,,,,,,,,,left,1.123885,0,169,169,5,1,retta,KT 130,nő,2000,13,2021-05-13_09h42.50.919,ranlexdec,2020.2.5,Win32,60
,,,,,,,,,,,,left,2.233015,0,170,170,17,1,magmatit,KT 130,nő,2000,13,2021-05-13_09h42.50.919,ranlexdec,2020.2.5,Win32,60
,,,,,,,,,,,,left,2.691545,0,171,171,166,1,retálhit,KT 130,nő,2000,13,2021-05-13_09h42.50.919,ranlexdec,2020.2.5,Win32,60
,,,,,,,,,,,,right,1.829785,0,172,172,114,1,tartalom,KT 130,nő,2000,13,2021-05-13_09h42.50.919,ranlexdec,2020.2.5,Win32,60
,,,,,,,,,,,,left,6.76903,0,173,173,3,1,tömzsa,KT 130,nő,2000,13,2021-05-13_09h42.50.919,ranlexdec,2020.2.5,Win32,60
,,,,,,,,,,,,right,1.851745,0,174,174,165,1,lépték,KT 130,nő,2000,13,2021-05-13_09h42.50.919,ranlexdec,2020.2.5,Win32,60
,,,,,,,,,,,,right,2.68149,0,175,175,146,1,kondenzcsík,KT 130,nő,2000,13,2021-05-13_09h42.50.919,ranlexdec,2020.2.5,Win32,60
,,,,,,,,,,,,right,0.91931,0,176,176,194,1,végbél,KT 130,nő,2000,13,2021-05-13_09h42.50.919,ranlexdec,2020.2.5,Win32,60
,,,,,,,,,,,,left,2.17958,0,177,177,109,1,vényegő,KT 130,nő,2000,13,2021-05-13_09h42.50.919,ranlexdec,2020.2.5,Win32,60
,,,,,,,,,,,,left,1.55591,0,178,178,137,1,aragas,KT 130,nő,2000,13,2021-05-13_09h42.50.919,ranlexdec,2020.2.5,Win32,60
,,,,,,,,,,,,left,2.051445,0,179,179,91,1,tajtásos,KT 130,nő,2000,13,2021-05-13_09h42.50.919,ranlexdec,2020.2.5,Win32,60
,,,,,,,,,,,,right,2.49365,0,180,180,69,1,gerencsér,KT 130,nő,2000,13,2021-05-13_09h42.50.919,ranlexdec,2020.2.5,Win32,60
,,,,,,,,,,,,right,2.367915,0,181,181,174,1,cianid,KT 130,nő,2000,13,2021-05-13_09h42.50.919,ranlexdec,2020.2.5,Win32,60
,,,,,,,,,,,,right,0.9271,0,182,182,176,1,bélyeg,KT 130,nő,2000,13,2021-05-13_09h42.50.919,ranlexdec,2020.2.5,Win32,60
,,,,,,,,,,,,left,1.439665,0,183,183,43,1,közhely,KT 130,nő,2000,13,2021-05-13_09h42.50.919,ranlexdec,2020.2.5,Win32,60
,,,,,,,,,,,,left,2.682205,0,184,184,62,1,bizmut,KT 130,nő,2000,13,2021-05-13_09h42.50.919,ranlexdec,2020.2.5,Win32,60
,,,,,,,,,,,,left,1.539115,0,185,185,63,1,viszkózus,KT 130,nő,2000,13,2021-05-13_09h42.50.919,ranlexdec,2020.2.5,Win32,60
,,,,,,,,,,,,left,1.111415,0,186,186,57,1,lejmol,KT 130,nő,2000,13,2021-05-13_09h42.50.919,ranlexdec,2020.2.5,Win32,60
,,,,,,,,,,,,right,0.91747,0,187,187,90,1,orális,KT 130,nő,2000,13,2021-05-13_09h42.50.919,ranlexdec,2020.2.5,Win32,60
,,,,,,,,,,,,left,2.26734,0,188,188,60,1,bárányfark,KT 130,nő,2000,13,2021-05-13_09h42.50.919,ranlexdec,2020.2.5,Win32,60
,,,,,,,,,,,,right,1.329115,0,189,189,162,1,nimbus,KT 130,nő,2000,13,2021-05-13_09h42.50.919,ranlexdec,2020.2.5,Win32,60
,,,,,,,,,,,,left,2.65818,0,190,190,240,1,áradmány,KT 130,nő,2000,13,2021-05-13_09h42.50.919,ranlexdec,2020.2.5,Win32,60
,,,,,,,,,,,,right,2.23603,0,191,191,128,1,csüggedez,KT 130,nő,2000,13,2021-05-13_09h42.50.919,ranlexdec,2020.2.5,Win32,60
,,,,,,,,,,,,right,0.979995,0,192,192,78,1,törékeny,KT 130,nő,2000,13,2021-05-13_09h42.50.919,ranlexdec,2020.2.5,Win32,60
,,,,,,,,,,,,right,1.98078,0,193,193,87,1,forrpont,KT 130,nő,2000,13,2021-05-13_09h42.50.919,ranlexdec,2020.2.5,Win32,60
,,,,,,,,,,,,right,1.56148,0,194,194,25,1,reform,KT 130,nő,2000,13,2021-05-13_09h42.50.919,ranlexdec,2020.2.5,Win32,60
,,,,,,,,,,,,left,1.324295,0,195,195,16,1,cséltás,KT 130,nő,2000,13,2021-05-13_09h42.50.919,ranlexdec,2020.2.5,Win32,60
,,,,,,,,,,,,left,1.329245,0,196,196,217,1,ifjít,KT 130,nő,2000,13,2021-05-13_09h42.50.919,ranlexdec,2020.2.5,Win32,60
,,,,,,,,,,,,right,1.52328,0,197,197,234,1,fertilis,KT 130,nő,2000,13,2021-05-13_09h42.50.919,ranlexdec,2020.2.5,Win32,60
,,,,,,,,,,,,right,0.790255,0,198,198,238,1,bolgár,KT 130,nő,2000,13,2021-05-13_09h42.50.919,ranlexdec,2020.2.5,Win32,60
,,,,,,,,,,,,right,1.560995,0,199,199,148,1,mellényzseb,KT 130,nő,2000,13,2021-05-13_09h42.50.919,ranlexdec,2020.2.5,Win32,60
,,,,,,,,,,,,left,1.21761,0,200,200,167,1,vabank,KT 130,nő,2000,13,2021-05-13_09h42.50.919,ranlexdec,2020.2.5,Win32,60
,,,,,,,,,,,,left,1.865085,0,201,201,51,1,bajuszfű,KT 130,nő,2000,13,2021-05-13_09h42.50.919,ranlexdec,2020.2.5,Win32,60
,,,,,,,,,,,,left,1.69498,0,202,202,101,1,nukleon,KT 130,nő,2000,13,2021-05-13_09h42.50.919,ranlexdec,2020.2.5,Win32,60
,,,,,,,,,,,,right,1.331545,0,203,203,196,1,dolgozik,KT 130,nő,2000,13,2021-05-13_09h42.50.919,ranlexdec,2020.2.5,Win32,60
,,,,,,,,,,,,right,2.52639,0,204,204,89,1,szokik,KT 130,nő,2000,13,2021-05-13_09h42.50.919,ranlexdec,2020.2.5,Win32,60
,,,,,,,,,,,,right,1.76702,0,205,205,22,1,arzénsav,KT 130,nő,2000,13,2021-05-13_09h42.50.919,ranlexdec,2020.2.5,Win32,60
,,,,,,,,,,,,right,1.151105,0,206,206,132,1,hatalom,KT 130,nő,2000,13,2021-05-13_09h42.50.919,ranlexdec,2020.2.5,Win32,60
,,,,,,,,,,,,left,1.142685,0,207,207,38,1,zomogyi,KT 130,nő,2000,13,2021-05-13_09h42.50.919,ranlexdec,2020.2.5,Win32,60
,,,,,,,,,,,,right,1.16995,0,208,208,85,1,glükóz,KT 130,nő,2000,13,2021-05-13_09h42.50.919,ranlexdec,2020.2.5,Win32,60
,,,,,,,,,,,,right,2.264335,0,209,209,95,1,skubizik,KT 130,nő,2000,13,2021-05-13_09h42.50.919,ranlexdec,2020.2.5,Win32,60
,,,,,,,,,,,,left,2.17703,0,210,210,121,1,aggófű,KT 130,nő,2000,13,2021-05-13_09h42.50.919,ranlexdec,2020.2.5,Win32,60
,,,,,,,,,,,,right,0.96655,0,211,211,33,1,kalcium,KT 130,nő,2000,13,2021-05-13_09h42.50.919,ranlexdec,2020.2.5,Win32,60
,,,,,,,,,,,,right,0.9998,0,212,212,158,1,hidroxid,KT 130,nő,2000,13,2021-05-13_09h42.50.919,ranlexdec,2020.2.5,Win32,60
,,,,,,,,,,,,left,1.909715,0,213,213,49,1,ernyak,KT 130,nő,2000,13,2021-05-13_09h42.50.919,ranlexdec,2020.2.5,Win32,60
,,,,,,,,,,,,left,1.348065,0,214,214,117,1,ószeven,KT 130,nő,2000,13,2021-05-13_09h42.50.919,ranlexdec,2020.2.5,Win32,60
,,,,,,,,,,,,left,2.60052,0,215,215,219,1,szimboló,KT 130,nő,2000,13,2021-05-13_09h42.50.919,ranlexdec,2020.2.5,Win32,60
,,,,,,,,,,,,right,4.04642,0,216,216,44,1,ingváll,KT 130,nő,2000,13,2021-05-13_09h42.50.919,ranlexdec,2020.2.5,Win32,60
,,,,,,,,,,,,right,0.670735,0,217,217,104,1,dolog,KT 130,nő,2000,13,2021-05-13_09h42.50.919,ranlexdec,2020.2.5,Win32,60
,,,,,,,,,,,,right,1.270035,0,218,218,41,1,nagybeteg,KT 130,nő,2000,13,2021-05-13_09h42.50.919,ranlexdec,2020.2.5,Win32,60
,,,,,,,,,,,,left,2.47876,0,219,219,163,1,kollapszus,KT 130,nő,2000,13,2021-05-13_09h42.50.919,ranlexdec,2020.2.5,Win32,60
,,,,,,,,,,,,left,2.2276,0,220,220,155,1,megpadék,KT 130,nő,2000,13,2021-05-13_09h42.50.919,ranlexdec,2020.2.5,Win32,60
,,,,,,,,,,,,left,1.87579,0,221,221,205,1,mimézis,KT 130,nő,2000,13,2021-05-13_09h42.50.919,ranlexdec,2020.2.5,Win32,60
,,,,,,,,,,,,right,1.396435,0,222,222,96,1,alfél,KT 130,nő,2000,13,2021-05-13_09h42.50.919,ranlexdec,2020.2.5,Win32,60
,,,,,,,,,,,,right,1.235485,0,223,223,138,1,gyűjtemény,KT 130,nő,2000,13,2021-05-13_09h42.50.919,ranlexdec,2020.2.5,Win32,60
,,,,,,,,,,,,left,1.679415,0,224,224,133,1,hübrisz,KT 130,nő,2000,13,2021-05-13_09h42.50.919,ranlexdec,2020.2.5,Win32,60
,,,,,,,,,,,,left,2.372125,0,225,225,191,1,hitódó,KT 130,nő,2000,13,2021-05-13_09h42.50.919,ranlexdec,2020.2.5,Win32,60
,,,,,,,,,,,,left,1.459405,0,226,226,24,1,kosi,KT 130,nő,2000,13,2021-05-13_09h42.50.919,ranlexdec,2020.2.5,Win32,60
,,,,,,,,,,,,right,2.902145,0,227,227,70,1,lakotthely,KT 130,nő,2000,13,2021-05-13_09h42.50.919,ranlexdec,2020.2.5,Win32,60
,,,,,,,,,,,,left,3.342305,0,228,228,115,1,fajansz,KT 130,nő,2000,13,2021-05-13_09h42.50.919,ranlexdec,2020.2.5,Win32,60
,,,,,,,,,,,,right,1.12851,0,229,229,13,1,törköly,KT 130,nő,2000,13,2021-05-13_09h42.50.919,ranlexdec,2020.2.5,Win32,60
,,,,,,,,,,,,right,0.60599,0,230,230,188,1,sugár,KT 130,nő,2000,13,2021-05-13_09h42.50.919,ranlexdec,2020.2.5,Win32,60
,,,,,,,,,,,,left,1.36746,0,231,231,212,1,farkasbab,KT 130,nő,2000,13,2021-05-13_09h42.50.919,ranlexdec,2020.2.5,Win32,60
,,,,,,,,,,,,left,1.20597,0,232,232,190,1,rámáz,KT 130,nő,2000,13,2021-05-13_09h42.50.919,ranlexdec,2020.2.5,Win32,60
,,,,,,,,,,,,left,2.480865,0,233,233,131,1,vetézmés,KT 130,nő,2000,13,2021-05-13_09h42.50.919,ranlexdec,2020.2.5,Win32,60
,,,,,,,,,,,,left,2.82804,0,234,234,65,1,infimum,KT 130,nő,2000,13,2021-05-13_09h42.50.919,ranlexdec,2020.2.5,Win32,60
,,,,,,,,,,,,right,1.285735,0,235,235,228,1,tarol,KT 130,nő,2000,13,2021-05-13_09h42.50.919,ranlexdec,2020.2.5,Win32,60
,,,,,,,,,,,,right,0.800025,0,236,236,126,1,rejtőzik,KT 130,nő,2000,13,2021-05-13_09h42.50.919,ranlexdec,2020.2.5,Win32,60
,,,,,,,,,,,,right,0.574075,0,237,237,144,1,rövid,KT 130,nő,2000,13,2021-05-13_09h42.50.919,ranlexdec,2020.2.5,Win32,60
,,,,,,,,,,,,left,1.263215,0,238,238,111,1,koenzim,KT 130,nő,2000,13,2021-05-13_09h42.50.919,ranlexdec,2020.2.5,Win32,60
,,,,,,,,,,,,right,0.89353,0,239,239,59,1,ómagyar,KT 130,nő,2000,13,2021-05-13_09h42.50.919,ranlexdec,2020.2.5,Win32,60
,,,,,,,,,,,,left,1.192155,0,240,240,29,1,novagár,KT 130,nő,2000,13,2021-05-13_09h42.50.919,ranlexdec,2020.2.5,Win32,60
,,,,,,,,,,,,left,1.047685,0,241,241,120,1,komál,KT 130,nő,2000,13,2021-05-13_09h42.50.919,ranlexdec,2020.2.5,Win32,60
,,,,,,,,,,,,left,1.48029,0,242,242,46,1,kurzív,KT 130,nő,2000,13,2021-05-13_09h42.50.919,ranlexdec,2020.2.5,Win32,60
,,,,,,,,,,,,right,0.894295,0,243,243,200,1,biliárd,KT 130,nő,2000,13,2021-05-13_09h42.50.919,ranlexdec,2020.2.5,Win32,60
,,,,,,,,,,,,left,1.768045,0,244,244,243,1,dipeptid,KT 130,nő,2000,13,2021-05-13_09h42.50.919,ranlexdec,2020.2.5,Win32,60
,,,,,,,,,,,,right,2.24951,0,245,245,177,1,pereg,KT 130,nő,2000,13,2021-05-13_09h42.50.919,ranlexdec,2020.2.5,Win32,60
,,,,,,,,,,,,right,1.65304,0,246,246,15,1,pauzál,KT 130,nő,2000,13,2021-05-13_09h42.50.919,ranlexdec,2020.2.5,Win32,60
,,,,,,,,,,,,left,2.60832,0,247,247,180,1,adszorbens,KT 130,nő,2000,13,2021-05-13_09h42.50.919,ranlexdec,2020.2.5,Win32,60
,,,,,,,,,,,,left,1.34953,0,248,248,218,1,tortya,KT 130,nő,2000,13,2021-05-13_09h42.50.919,ranlexdec,2020.2.5,Win32,60
,,,,,,,,,,,,right,1.32579,0,249,249,171,1,újgazdag,KT 130,nő,2000,13,2021-05-13_09h42.50.919,ranlexdec,2020.2.5,Win32,60
