ready2_2.keys,ready2_2.rt,ready2.keys,ready2.rt,key_resp.keys,key_resp.rt,key_resp_3.keys,key_resp_3.rt,key_resp_2.keys,key_resp_2.rt,ready3.keys,ready3.rt,resp.keys,resp.rt,withinBlock.thisRepN,withinBlock.thisTrialN,withinBlock.thisN,withinBlock.thisIndex,withinBlock.ran,word,Azonosító,Az Ön neme,Születési éve,Hány évet töltött az iskolapadban (egyetemet is beleértve),date,expName,psychopyVersion,OS,frameRate
space,35.53744,space,110.294355,right,2.376965,left,3.36577,left,3.90041,right,20.550395,right,2.72972,0,0,0,199,1,ború,KT227,Nő,2001,13,2021-05-14_15h27.47.361,ranlexdec,2020.2.5,Win32,60
,,,,,,,,,,,,right,1.826615,0,1,1,122,1,égitest,KT227,Nő,2001,13,2021-05-14_15h27.47.361,ranlexdec,2020.2.5,Win32,60
,,,,,,,,,,,,right,5.165665,0,2,2,147,1,referál,KT227,Nő,2001,13,2021-05-14_15h27.47.361,ranlexdec,2020.2.5,Win32,60
,,,,,,,,,,,,left,4.38312,0,3,3,133,1,hübrisz,KT227,Nő,2001,13,2021-05-14_15h27.47.361,ranlexdec,2020.2.5,Win32,60
,,,,,,,,,,,,right,5.70355,0,4,4,240,1,áradmány,KT227,Nő,2001,13,2021-05-14_15h27.47.361,ranlexdec,2020.2.5,Win32,60
,,,,,,,,,,,,left,3.968895,0,5,5,1,1,csapdáz,KT227,Nő,2001,13,2021-05-14_15h27.47.361,ranlexdec,2020.2.5,Win32,60
,,,,,,,,,,,,right,2.12549,0,6,6,248,1,örmény,KT227,Nő,2001,13,2021-05-14_15h27.47.361,ranlexdec,2020.2.5,Win32,60
,,,,,,,,,,,,right,1.372655,0,7,7,20,1,század,KT227,Nő,2001,13,2021-05-14_15h27.47.361,ranlexdec,2020.2.5,Win32,60
,,,,,,,,,,,,right,2.91575,0,8,8,18,1,csapattest,KT227,Nő,2001,13,2021-05-14_15h27.47.361,ranlexdec,2020.2.5,Win32,60
,,,,,,,,,,,,right,0.90141,0,9,9,129,1,turné,KT227,Nő,2001,13,2021-05-14_15h27.47.361,ranlexdec,2020.2.5,Win32,60
,,,,,,,,,,,,right,0.96761,0,10,10,92,1,lágyék,KT227,Nő,2001,13,2021-05-14_15h27.47.361,ranlexdec,2020.2.5,Win32,60
,,,,,,,,,,,,left,3.731905,0,11,11,142,1,storítő,KT227,Nő,2001,13,2021-05-14_15h27.47.361,ranlexdec,2020.2.5,Win32,60
,,,,,,,,,,,,right,2.082455,0,12,12,60,1,bárányfark,KT227,Nő,2001,13,2021-05-14_15h27.47.361,ranlexdec,2020.2.5,Win32,60
,,,,,,,,,,,,right,2.14953,0,13,13,128,1,csüggedez,KT227,Nő,2001,13,2021-05-14_15h27.47.361,ranlexdec,2020.2.5,Win32,60
,,,,,,,,,,,,right,1.94973,0,14,14,37,1,lukaszt,KT227,Nő,2001,13,2021-05-14_15h27.47.361,ranlexdec,2020.2.5,Win32,60
,,,,,,,,,,,,right,1.499925,0,15,15,110,1,időszak,KT227,Nő,2001,13,2021-05-14_15h27.47.361,ranlexdec,2020.2.5,Win32,60
,,,,,,,,,,,,right,1.88288,0,16,16,156,1,lazúroz,KT227,Nő,2001,13,2021-05-14_15h27.47.361,ranlexdec,2020.2.5,Win32,60
,,,,,,,,,,,,left,1.88341,0,17,17,83,1,vonzum,KT227,Nő,2001,13,2021-05-14_15h27.47.361,ranlexdec,2020.2.5,Win32,60
,,,,,,,,,,,,right,0.850615,0,18,18,228,1,tarol,KT227,Nő,2001,13,2021-05-14_15h27.47.361,ranlexdec,2020.2.5,Win32,60
,,,,,,,,,,,,left,4.43059,0,19,19,119,1,cugehőr,KT227,Nő,2001,13,2021-05-14_15h27.47.361,ranlexdec,2020.2.5,Win32,60
,,,,,,,,,,,,right,12.806165,0,20,20,162,1,nimbus,KT227,Nő,2001,13,2021-05-14_15h27.47.361,ranlexdec,2020.2.5,Win32,60
,,,,,,,,,,,,left,4.01438,0,21,21,229,1,lemesség,KT227,Nő,2001,13,2021-05-14_15h27.47.361,ranlexdec,2020.2.5,Win32,60
,,,,,,,,,,,,right,3.56894,0,22,22,180,1,adszorbens,KT227,Nő,2001,13,2021-05-14_15h27.47.361,ranlexdec,2020.2.5,Win32,60
,,,,,,,,,,,,right,1.53402,0,23,23,53,1,puritán,KT227,Nő,2001,13,2021-05-14_15h27.47.361,ranlexdec,2020.2.5,Win32,60
,,,,,,,,,,,,left,2.265765,0,24,24,192,1,norvend,KT227,Nő,2001,13,2021-05-14_15h27.47.361,ranlexdec,2020.2.5,Win32,60
,,,,,,,,,,,,left,3.2149,0,25,25,71,1,extuál,KT227,Nő,2001,13,2021-05-14_15h27.47.361,ranlexdec,2020.2.5,Win32,60
,,,,,,,,,,,,right,1.217115,0,26,26,231,1,igény,KT227,Nő,2001,13,2021-05-14_15h27.47.361,ranlexdec,2020.2.5,Win32,60
,,,,,,,,,,,,right,0.78373,0,27,27,10,1,nárcisz,KT227,Nő,2001,13,2021-05-14_15h27.47.361,ranlexdec,2020.2.5,Win32,60
,,,,,,,,,,,,right,0.800635,0,28,28,241,1,kárpit,KT227,Nő,2001,13,2021-05-14_15h27.47.361,ranlexdec,2020.2.5,Win32,60
,,,,,,,,,,,,left,2.29905,0,29,29,175,1,szilikát,KT227,Nő,2001,13,2021-05-14_15h27.47.361,ranlexdec,2020.2.5,Win32,60
,,,,,,,,,,,,right,0.81753,0,30,30,68,1,kitin,KT227,Nő,2001,13,2021-05-14_15h27.47.361,ranlexdec,2020.2.5,Win32,60
,,,,,,,,,,,,right,1.333105,0,31,31,233,1,templomoz,KT227,Nő,2001,13,2021-05-14_15h27.47.361,ranlexdec,2020.2.5,Win32,60
,,,,,,,,,,,,right,0.716955,0,32,32,73,1,olaj,KT227,Nő,2001,13,2021-05-14_15h27.47.361,ranlexdec,2020.2.5,Win32,60
,,,,,,,,,,,,left,1.89966,0,33,33,137,1,aragas,KT227,Nő,2001,13,2021-05-14_15h27.47.361,ranlexdec,2020.2.5,Win32,60
,,,,,,,,,,,,right,1.05026,0,34,34,126,1,rejtőzik,KT227,Nő,2001,13,2021-05-14_15h27.47.361,ranlexdec,2020.2.5,Win32,60
,,,,,,,,,,,,right,1.066765,0,35,35,63,1,viszkózus,KT227,Nő,2001,13,2021-05-14_15h27.47.361,ranlexdec,2020.2.5,Win32,60
,,,,,,,,,,,,right,1.316645,0,36,36,154,1,keresztény,KT227,Nő,2001,13,2021-05-14_15h27.47.361,ranlexdec,2020.2.5,Win32,60
,,,,,,,,,,,,left,3.314655,0,37,37,103,1,szabotró,KT227,Nő,2001,13,2021-05-14_15h27.47.361,ranlexdec,2020.2.5,Win32,60
,,,,,,,,,,,,right,1.066155,0,38,38,124,1,alkalom,KT227,Nő,2001,13,2021-05-14_15h27.47.361,ranlexdec,2020.2.5,Win32,60
,,,,,,,,,,,,right,1.233355,0,39,39,123,1,luftballon,KT227,Nő,2001,13,2021-05-14_15h27.47.361,ranlexdec,2020.2.5,Win32,60
,,,,,,,,,,,,right,1.066995,0,40,40,143,1,rojtoz,KT227,Nő,2001,13,2021-05-14_15h27.47.361,ranlexdec,2020.2.5,Win32,60
,,,,,,,,,,,,right,0.81152,0,41,41,221,1,törődik,KT227,Nő,2001,13,2021-05-14_15h27.47.361,ranlexdec,2020.2.5,Win32,60
,,,,,,,,,,,,right,0.86455,0,42,42,245,1,ellenfél,KT227,Nő,2001,13,2021-05-14_15h27.47.361,ranlexdec,2020.2.5,Win32,60
,,,,,,,,,,,,right,1.02252,0,43,43,43,1,közhely,KT227,Nő,2001,13,2021-05-14_15h27.47.361,ranlexdec,2020.2.5,Win32,60
,,,,,,,,,,,,left,2.598465,0,44,44,242,1,rekvizit,KT227,Nő,2001,13,2021-05-14_15h27.47.361,ranlexdec,2020.2.5,Win32,60
,,,,,,,,,,,,left,16.90292,0,45,45,212,1,farkasbab,KT227,Nő,2001,13,2021-05-14_15h27.47.361,ranlexdec,2020.2.5,Win32,60
,,,,,,,,,,,,left,2.115575,0,46,46,65,1,infimum,KT227,Nő,2001,13,2021-05-14_15h27.47.361,ranlexdec,2020.2.5,Win32,60
,,,,,,,,,,,,left,4.902795,0,47,47,218,1,tortya,KT227,Nő,2001,13,2021-05-14_15h27.47.361,ranlexdec,2020.2.5,Win32,60
,,,,,,,,,,,,left,3.564605,0,48,48,24,1,kosi,KT227,Nő,2001,13,2021-05-14_15h27.47.361,ranlexdec,2020.2.5,Win32,60
,,,,,,,,,,,,left,2.00731,0,49,49,203,1,abeti,KT227,Nő,2001,13,2021-05-14_15h27.47.361,ranlexdec,2020.2.5,Win32,60
,,,,,,,,,,,,right,2.721965,0,50,50,74,1,püffeszt,KT227,Nő,2001,13,2021-05-14_15h27.47.361,ranlexdec,2020.2.5,Win32,60
,,,,,,,,,,,,right,2.002015,0,51,51,235,1,transzplantál,KT227,Nő,2001,13,2021-05-14_15h27.47.361,ranlexdec,2020.2.5,Win32,60
,,,,,,,,,,,,left,3.50055,0,52,52,131,1,vetézmés,KT227,Nő,2001,13,2021-05-14_15h27.47.361,ranlexdec,2020.2.5,Win32,60
,,,,,,,,,,,,left,2.136725,0,53,53,17,1,magmatit,KT227,Nő,2001,13,2021-05-14_15h27.47.361,ranlexdec,2020.2.5,Win32,60
,,,,,,,,,,,,left,1.533005,0,54,54,44,1,ingváll,KT227,Nő,2001,13,2021-05-14_15h27.47.361,ranlexdec,2020.2.5,Win32,60
,,,,,,,,,,,,right,1.06671,0,55,55,56,1,kanalaz,KT227,Nő,2001,13,2021-05-14_15h27.47.361,ranlexdec,2020.2.5,Win32,60
,,,,,,,,,,,,right,0.68915,0,56,56,28,1,gazdag,KT227,Nő,2001,13,2021-05-14_15h27.47.361,ranlexdec,2020.2.5,Win32,60
,,,,,,,,,,,,right,0.917055,0,57,57,187,1,testnedv,KT227,Nő,2001,13,2021-05-14_15h27.47.361,ranlexdec,2020.2.5,Win32,60
,,,,,,,,,,,,right,1.04085,0,58,58,113,1,piktogram,KT227,Nő,2001,13,2021-05-14_15h27.47.361,ranlexdec,2020.2.5,Win32,60
,,,,,,,,,,,,right,0.72653,0,59,59,176,1,bélyeg,KT227,Nő,2001,13,2021-05-14_15h27.47.361,ranlexdec,2020.2.5,Win32,60
,,,,,,,,,,,,right,1.30297,0,60,60,160,1,százalék,KT227,Nő,2001,13,2021-05-14_15h27.47.361,ranlexdec,2020.2.5,Win32,60
,,,,,,,,,,,,left,1.233695,0,61,61,5,1,retta,KT227,Nő,2001,13,2021-05-14_15h27.47.361,ranlexdec,2020.2.5,Win32,60
,,,,,,,,,,,,right,1.034905,0,62,62,149,1,anorák,KT227,Nő,2001,13,2021-05-14_15h27.47.361,ranlexdec,2020.2.5,Win32,60
,,,,,,,,,,,,right,1.01731,0,63,63,99,1,sárgaréz,KT227,Nő,2001,13,2021-05-14_15h27.47.361,ranlexdec,2020.2.5,Win32,60
,,,,,,,,,,,,right,4.280235,0,64,64,96,1,alfél,KT227,Nő,2001,13,2021-05-14_15h27.47.361,ranlexdec,2020.2.5,Win32,60
,,,,,,,,,,,,right,0.86715,0,65,65,64,1,hálózsák,KT227,Nő,2001,13,2021-05-14_15h27.47.361,ranlexdec,2020.2.5,Win32,60
,,,,,,,,,,,,left,2.86577,0,66,66,205,1,mimézis,KT227,Nő,2001,13,2021-05-14_15h27.47.361,ranlexdec,2020.2.5,Win32,60
,,,,,,,,,,,,left,2.08321,0,67,67,224,1,truccol,KT227,Nő,2001,13,2021-05-14_15h27.47.361,ranlexdec,2020.2.5,Win32,60
,,,,,,,,,,,,left,2.183225,0,68,68,225,1,bajadér,KT227,Nő,2001,13,2021-05-14_15h27.47.361,ranlexdec,2020.2.5,Win32,60
,,,,,,,,,,,,right,2.04951,0,69,69,158,1,hidroxid,KT227,Nő,2001,13,2021-05-14_15h27.47.361,ranlexdec,2020.2.5,Win32,60
,,,,,,,,,,,,right,1.033775,0,70,70,238,1,bolgár,KT227,Nő,2001,13,2021-05-14_15h27.47.361,ranlexdec,2020.2.5,Win32,60
,,,,,,,,,,,,right,0.933765,0,71,71,194,1,végbél,KT227,Nő,2001,13,2021-05-14_15h27.47.361,ranlexdec,2020.2.5,Win32,60
,,,,,,,,,,,,left,2.449615,0,72,72,106,1,lalláz,KT227,Nő,2001,13,2021-05-14_15h27.47.361,ranlexdec,2020.2.5,Win32,60
,,,,,,,,,,,,left,5.86266,0,73,73,87,1,forrpont,KT227,Nő,2001,13,2021-05-14_15h27.47.361,ranlexdec,2020.2.5,Win32,60
,,,,,,,,,,,,right,1.08332,0,74,74,185,1,gyülemlik,KT227,Nő,2001,13,2021-05-14_15h27.47.361,ranlexdec,2020.2.5,Win32,60
,,,,,,,,,,,,right,1.204585,0,75,75,236,1,csatázik,KT227,Nő,2001,13,2021-05-14_15h27.47.361,ranlexdec,2020.2.5,Win32,60
,,,,,,,,,,,,left,2.765675,0,76,76,164,1,kurzivál,KT227,Nő,2001,13,2021-05-14_15h27.47.361,ranlexdec,2020.2.5,Win32,60
,,,,,,,,,,,,left,1.334735,0,77,77,49,1,ernyak,KT227,Nő,2001,13,2021-05-14_15h27.47.361,ranlexdec,2020.2.5,Win32,60
,,,,,,,,,,,,right,0.85898,0,78,78,140,1,diktátor,KT227,Nő,2001,13,2021-05-14_15h27.47.361,ranlexdec,2020.2.5,Win32,60
,,,,,,,,,,,,right,0.841425,0,79,79,54,1,fürkész,KT227,Nő,2001,13,2021-05-14_15h27.47.361,ranlexdec,2020.2.5,Win32,60
,,,,,,,,,,,,left,1.28321,0,80,80,62,1,bizmut,KT227,Nő,2001,13,2021-05-14_15h27.47.361,ranlexdec,2020.2.5,Win32,60
,,,,,,,,,,,,right,1.999685,0,81,81,223,1,árstop,KT227,Nő,2001,13,2021-05-14_15h27.47.361,ranlexdec,2020.2.5,Win32,60
,,,,,,,,,,,,left,1.83744,0,82,82,141,1,hider,KT227,Nő,2001,13,2021-05-14_15h27.47.361,ranlexdec,2020.2.5,Win32,60
,,,,,,,,,,,,right,0.840755,0,83,83,59,1,ómagyar,KT227,Nő,2001,13,2021-05-14_15h27.47.361,ranlexdec,2020.2.5,Win32,60
,,,,,,,,,,,,left,2.296485,0,84,84,181,1,dohorpák,KT227,Nő,2001,13,2021-05-14_15h27.47.361,ranlexdec,2020.2.5,Win32,60
,,,,,,,,,,,,right,0.917595,0,85,85,178,1,sziszeg,KT227,Nő,2001,13,2021-05-14_15h27.47.361,ranlexdec,2020.2.5,Win32,60
,,,,,,,,,,,,left,2.365735,0,86,86,219,1,szimboló,KT227,Nő,2001,13,2021-05-14_15h27.47.361,ranlexdec,2020.2.5,Win32,60
,,,,,,,,,,,,right,1.216835,0,87,87,201,1,szempont,KT227,Nő,2001,13,2021-05-14_15h27.47.361,ranlexdec,2020.2.5,Win32,60
,,,,,,,,,,,,right,4.763495,0,88,88,173,1,glosszáz,KT227,Nő,2001,13,2021-05-14_15h27.47.361,ranlexdec,2020.2.5,Win32,60
,,,,,,,,,,,,right,0.717835,0,89,89,21,1,heveny,KT227,Nő,2001,13,2021-05-14_15h27.47.361,ranlexdec,2020.2.5,Win32,60
,,,,,,,,,,,,right,0.650795,0,90,90,31,1,iszlám,KT227,Nő,2001,13,2021-05-14_15h27.47.361,ranlexdec,2020.2.5,Win32,60
,,,,,,,,,,,,right,0.634105,0,91,91,244,1,kislány,KT227,Nő,2001,13,2021-05-14_15h27.47.361,ranlexdec,2020.2.5,Win32,60
,,,,,,,,,,,,left,1.017335,0,92,92,52,1,kunyai,KT227,Nő,2001,13,2021-05-14_15h27.47.361,ranlexdec,2020.2.5,Win32,60
,,,,,,,,,,,,right,3.464245,0,93,93,217,1,ifjít,KT227,Nő,2001,13,2021-05-14_15h27.47.361,ranlexdec,2020.2.5,Win32,60
,,,,,,,,,,,,right,0.85551,0,94,94,200,1,biliárd,KT227,Nő,2001,13,2021-05-14_15h27.47.361,ranlexdec,2020.2.5,Win32,60
,,,,,,,,,,,,right,2.819505,0,95,95,135,1,ion,KT227,Nő,2001,13,2021-05-14_15h27.47.361,ranlexdec,2020.2.5,Win32,60
,,,,,,,,,,,,right,1.228385,0,96,96,11,1,viszkóz,KT227,Nő,2001,13,2021-05-14_15h27.47.361,ranlexdec,2020.2.5,Win32,60
,,,,,,,,,,,,right,2.412735,0,97,97,70,1,lakotthely,KT227,Nő,2001,13,2021-05-14_15h27.47.361,ranlexdec,2020.2.5,Win32,60
,,,,,,,,,,,,right,1.44978,0,98,98,6,1,csüggeszt,KT227,Nő,2001,13,2021-05-14_15h27.47.361,ranlexdec,2020.2.5,Win32,60
,,,,,,,,,,,,left,7.27827,0,99,99,232,1,tropikus,KT227,Nő,2001,13,2021-05-14_15h27.47.361,ranlexdec,2020.2.5,Win32,60
,,,,,,,,,,,,left,1.65353,0,100,100,239,1,donhuán,KT227,Nő,2001,13,2021-05-14_15h27.47.361,ranlexdec,2020.2.5,Win32,60
,,,,,,,,,,,,right,2.09185,0,101,101,120,1,komál,KT227,Nő,2001,13,2021-05-14_15h27.47.361,ranlexdec,2020.2.5,Win32,60
,,,,,,,,,,,,left,2.488835,0,102,102,153,1,kontrapunkt,KT227,Nő,2001,13,2021-05-14_15h27.47.361,ranlexdec,2020.2.5,Win32,60
,,,,,,,,,,,,right,0.877425,0,103,103,171,1,újgazdag,KT227,Nő,2001,13,2021-05-14_15h27.47.361,ranlexdec,2020.2.5,Win32,60
,,,,,,,,,,,,left,2.81745,0,104,104,108,1,konyrúd,KT227,Nő,2001,13,2021-05-14_15h27.47.361,ranlexdec,2020.2.5,Win32,60
,,,,,,,,,,,,right,0.904185,0,105,105,213,1,eszköz,KT227,Nő,2001,13,2021-05-14_15h27.47.361,ranlexdec,2020.2.5,Win32,60
,,,,,,,,,,,,right,0.71732,0,106,106,208,1,lélek,KT227,Nő,2001,13,2021-05-14_15h27.47.361,ranlexdec,2020.2.5,Win32,60
,,,,,,,,,,,,right,0.86082,0,107,107,130,1,derít,KT227,Nő,2001,13,2021-05-14_15h27.47.361,ranlexdec,2020.2.5,Win32,60
,,,,,,,,,,,,left,3.764605,0,108,108,226,1,szalicil,KT227,Nő,2001,13,2021-05-14_15h27.47.361,ranlexdec,2020.2.5,Win32,60
,,,,,,,,,,,,right,0.923415,0,109,109,33,1,kalcium,KT227,Nő,2001,13,2021-05-14_15h27.47.361,ranlexdec,2020.2.5,Win32,60
,,,,,,,,,,,,right,0.816215,0,110,110,161,1,példakép,KT227,Nő,2001,13,2021-05-14_15h27.47.361,ranlexdec,2020.2.5,Win32,60
,,,,,,,,,,,,left,1.442975,0,111,111,50,1,csenyei,KT227,Nő,2001,13,2021-05-14_15h27.47.361,ranlexdec,2020.2.5,Win32,60
,,,,,,,,,,,,right,0.844145,0,112,112,210,1,karakter,KT227,Nő,2001,13,2021-05-14_15h27.47.361,ranlexdec,2020.2.5,Win32,60
,,,,,,,,,,,,right,0.894585,0,113,113,206,1,horizont,KT227,Nő,2001,13,2021-05-14_15h27.47.361,ranlexdec,2020.2.5,Win32,60
,,,,,,,,,,,,right,0.77898,0,114,114,45,1,népszerű,KT227,Nő,2001,13,2021-05-14_15h27.47.361,ranlexdec,2020.2.5,Win32,60
,,,,,,,,,,,,left,4.465175,0,115,115,197,1,krakéler,KT227,Nő,2001,13,2021-05-14_15h27.47.361,ranlexdec,2020.2.5,Win32,60
,,,,,,,,,,,,right,1.38283,0,116,116,170,1,változik,KT227,Nő,2001,13,2021-05-14_15h27.47.361,ranlexdec,2020.2.5,Win32,60
,,,,,,,,,,,,left,3.730705,0,117,117,38,1,zomogyi,KT227,Nő,2001,13,2021-05-14_15h27.47.361,ranlexdec,2020.2.5,Win32,60
,,,,,,,,,,,,right,0.932825,0,118,118,168,1,grafikon,KT227,Nő,2001,13,2021-05-14_15h27.47.361,ranlexdec,2020.2.5,Win32,60
,,,,,,,,,,,,left,1.84876,0,119,119,29,1,novagár,KT227,Nő,2001,13,2021-05-14_15h27.47.361,ranlexdec,2020.2.5,Win32,60
,,,,,,,,,,,,right,1.58304,0,120,120,174,1,cianid,KT227,Nő,2001,13,2021-05-14_15h27.47.361,ranlexdec,2020.2.5,Win32,60
,,,,,,,,,,,,right,4.97974,0,121,121,243,1,dipeptid,KT227,Nő,2001,13,2021-05-14_15h27.47.361,ranlexdec,2020.2.5,Win32,60
,,,,,,,,,,,,right,1.01634,0,122,122,214,1,tenger,KT227,Nő,2001,13,2021-05-14_15h27.47.361,ranlexdec,2020.2.5,Win32,60
,,,,,,,,,,,,left,3.14776,0,123,123,93,1,kilukát,KT227,Nő,2001,13,2021-05-14_15h27.47.361,ranlexdec,2020.2.5,Win32,60
,,,,,,,,,,,,right,2.09665,0,124,124,95,1,skubizik,KT227,Nő,2001,13,2021-05-14_15h27.47.361,ranlexdec,2020.2.5,Win32,60
,,,,,,,,,,,,right,1.83484,0,125,125,211,1,tábornagy,KT227,Nő,2001,13,2021-05-14_15h27.47.361,ranlexdec,2020.2.5,Win32,60
,,,,,,,,,,,,left,1.98174,0,126,126,72,1,mihálóz,KT227,Nő,2001,13,2021-05-14_15h27.47.361,ranlexdec,2020.2.5,Win32,60
,,,,,,,,,,,,right,0.969585,0,127,127,151,1,komplex,KT227,Nő,2001,13,2021-05-14_15h27.47.361,ranlexdec,2020.2.5,Win32,60
,,,,,,,,,,,,left,2.54333,0,128,128,157,1,káder,KT227,Nő,2001,13,2021-05-14_15h27.47.361,ranlexdec,2020.2.5,Win32,60
,,,,,,,,,,,,right,0.94072,0,129,129,79,1,extrém,KT227,Nő,2001,13,2021-05-14_15h27.47.361,ranlexdec,2020.2.5,Win32,60
,,,,,,,,,,,,right,0.953055,0,130,130,169,1,komoly,KT227,Nő,2001,13,2021-05-14_15h27.47.361,ranlexdec,2020.2.5,Win32,60
,,,,,,,,,,,,right,0.742805,0,131,131,55,1,látszik,KT227,Nő,2001,13,2021-05-14_15h27.47.361,ranlexdec,2020.2.5,Win32,60
,,,,,,,,,,,,right,2.03231,0,132,132,30,1,dádá,KT227,Nő,2001,13,2021-05-14_15h27.47.361,ranlexdec,2020.2.5,Win32,60
,,,,,,,,,,,,left,2.198355,0,133,133,127,1,rozintem,KT227,Nő,2001,13,2021-05-14_15h27.47.361,ranlexdec,2020.2.5,Win32,60
,,,,,,,,,,,,right,0.82578,0,134,134,230,1,délceg,KT227,Nő,2001,13,2021-05-14_15h27.47.361,ranlexdec,2020.2.5,Win32,60
,,,,,,,,,,,,right,1.388405,0,135,135,179,1,töredék,KT227,Nő,2001,13,2021-05-14_15h27.47.361,ranlexdec,2020.2.5,Win32,60
,,,,,,,,,,,,left,4.080165,0,136,136,101,1,nukleon,KT227,Nő,2001,13,2021-05-14_15h27.47.361,ranlexdec,2020.2.5,Win32,60
,,,,,,,,,,,,left,1.582975,0,137,137,42,1,összalaj,KT227,Nő,2001,13,2021-05-14_15h27.47.361,ranlexdec,2020.2.5,Win32,60
,,,,,,,,,,,,left,2.04933,0,138,138,234,1,fertilis,KT227,Nő,2001,13,2021-05-14_15h27.47.361,ranlexdec,2020.2.5,Win32,60
,,,,,,,,,,,,right,0.817545,0,139,139,25,1,reform,KT227,Nő,2001,13,2021-05-14_15h27.47.361,ranlexdec,2020.2.5,Win32,60
,,,,,,,,,,,,left,1.166505,0,140,140,40,1,diviz,KT227,Nő,2001,13,2021-05-14_15h27.47.361,ranlexdec,2020.2.5,Win32,60
,,,,,,,,,,,,left,2.298975,0,141,141,166,1,retálhit,KT227,Nő,2001,13,2021-05-14_15h27.47.361,ranlexdec,2020.2.5,Win32,60
,,,,,,,,,,,,right,3.997235,0,142,142,35,1,türemlik,KT227,Nő,2001,13,2021-05-14_15h27.47.361,ranlexdec,2020.2.5,Win32,60
,,,,,,,,,,,,left,2.11517,0,143,143,23,1,szelégül,KT227,Nő,2001,13,2021-05-14_15h27.47.361,ranlexdec,2020.2.5,Win32,60
,,,,,,,,,,,,right,1.915385,0,144,144,249,1,kencéz,KT227,Nő,2001,13,2021-05-14_15h27.47.361,ranlexdec,2020.2.5,Win32,60
,,,,,,,,,,,,right,0.750375,0,145,145,104,1,dolog,KT227,Nő,2001,13,2021-05-14_15h27.47.361,ranlexdec,2020.2.5,Win32,60
,,,,,,,,,,,,right,4.064135,0,146,146,69,1,gerencsér,KT227,Nő,2001,13,2021-05-14_15h27.47.361,ranlexdec,2020.2.5,Win32,60
,,,,,,,,,,,,right,1.04943,0,147,147,88,1,pohár,KT227,Nő,2001,13,2021-05-14_15h27.47.361,ranlexdec,2020.2.5,Win32,60
,,,,,,,,,,,,right,3.564255,0,148,148,32,1,genom,KT227,Nő,2001,13,2021-05-14_15h27.47.361,ranlexdec,2020.2.5,Win32,60
,,,,,,,,,,,,right,0.803425,0,149,149,136,1,rücsök,KT227,Nő,2001,13,2021-05-14_15h27.47.361,ranlexdec,2020.2.5,Win32,60
,,,,,,,,,,,,right,0.882905,0,150,150,159,1,elegy,KT227,Nő,2001,13,2021-05-14_15h27.47.361,ranlexdec,2020.2.5,Win32,60
,,,,,,,,,,,,left,4.72993,0,151,151,117,1,ószeven,KT227,Nő,2001,13,2021-05-14_15h27.47.361,ranlexdec,2020.2.5,Win32,60
,,,,,,,,,,,,left,2.95727,0,152,152,167,1,vabank,KT227,Nő,2001,13,2021-05-14_15h27.47.361,ranlexdec,2020.2.5,Win32,60
,,,,,,,,,,,,right,1.03851,0,153,153,105,1,tököl,KT227,Nő,2001,13,2021-05-14_15h27.47.361,ranlexdec,2020.2.5,Win32,60
,,,,,,,,,,,,right,0.717485,0,154,154,58,1,barát,KT227,Nő,2001,13,2021-05-14_15h27.47.361,ranlexdec,2020.2.5,Win32,60
,,,,,,,,,,,,right,0.70358,0,155,155,80,1,darab,KT227,Nő,2001,13,2021-05-14_15h27.47.361,ranlexdec,2020.2.5,Win32,60
,,,,,,,,,,,,right,1.2619,0,156,156,12,1,gyapot,KT227,Nő,2001,13,2021-05-14_15h27.47.361,ranlexdec,2020.2.5,Win32,60
,,,,,,,,,,,,right,0.86049,0,157,157,98,1,mítosz,KT227,Nő,2001,13,2021-05-14_15h27.47.361,ranlexdec,2020.2.5,Win32,60
,,,,,,,,,,,,right,2.149225,0,158,158,111,1,koenzim,KT227,Nő,2001,13,2021-05-14_15h27.47.361,ranlexdec,2020.2.5,Win32,60
,,,,,,,,,,,,right,0.66101,0,159,159,246,1,beton,KT227,Nő,2001,13,2021-05-14_15h27.47.361,ranlexdec,2020.2.5,Win32,60
,,,,,,,,,,,,left,2.109215,0,160,160,121,1,aggófű,KT227,Nő,2001,13,2021-05-14_15h27.47.361,ranlexdec,2020.2.5,Win32,60
,,,,,,,,,,,,right,1.51599,0,161,161,145,1,kurtít,KT227,Nő,2001,13,2021-05-14_15h27.47.361,ranlexdec,2020.2.5,Win32,60
,,,,,,,,,,,,left,5.512275,0,162,162,16,1,cséltás,KT227,Nő,2001,13,2021-05-14_15h27.47.361,ranlexdec,2020.2.5,Win32,60
,,,,,,,,,,,,left,1.749115,0,163,163,47,1,döföl,KT227,Nő,2001,13,2021-05-14_15h27.47.361,ranlexdec,2020.2.5,Win32,60
,,,,,,,,,,,,left,4.779915,0,164,164,190,1,rámáz,KT227,Nő,2001,13,2021-05-14_15h27.47.361,ranlexdec,2020.2.5,Win32,60
,,,,,,,,,,,,left,3.68097,0,165,165,76,1,jegedény,KT227,Nő,2001,13,2021-05-14_15h27.47.361,ranlexdec,2020.2.5,Win32,60
,,,,,,,,,,,,right,0.73354,0,166,166,188,1,sugár,KT227,Nő,2001,13,2021-05-14_15h27.47.361,ranlexdec,2020.2.5,Win32,60
,,,,,,,,,,,,right,1.71616,0,167,167,14,1,selypít,KT227,Nő,2001,13,2021-05-14_15h27.47.361,ranlexdec,2020.2.5,Win32,60
,,,,,,,,,,,,right,1.21607,0,168,168,100,1,balközép,KT227,Nő,2001,13,2021-05-14_15h27.47.361,ranlexdec,2020.2.5,Win32,60
,,,,,,,,,,,,right,1.28296,0,169,169,27,1,sporthorgász,KT227,Nő,2001,13,2021-05-14_15h27.47.361,ranlexdec,2020.2.5,Win32,60
,,,,,,,,,,,,right,0.700615,0,170,170,196,1,dolgozik,KT227,Nő,2001,13,2021-05-14_15h27.47.361,ranlexdec,2020.2.5,Win32,60
,,,,,,,,,,,,left,4.79679,0,171,171,150,1,orront,KT227,Nő,2001,13,2021-05-14_15h27.47.361,ranlexdec,2020.2.5,Win32,60
,,,,,,,,,,,,right,1.566045,0,172,172,193,1,bacon,KT227,Nő,2001,13,2021-05-14_15h27.47.361,ranlexdec,2020.2.5,Win32,60
,,,,,,,,,,,,left,2.0662,0,173,173,77,1,egant,KT227,Nő,2001,13,2021-05-14_15h27.47.361,ranlexdec,2020.2.5,Win32,60
,,,,,,,,,,,,left,2.098505,0,174,174,139,1,vároló,KT227,Nő,2001,13,2021-05-14_15h27.47.361,ranlexdec,2020.2.5,Win32,60
,,,,,,,,,,,,right,1.266565,0,175,175,138,1,gyűjtemény,KT227,Nő,2001,13,2021-05-14_15h27.47.361,ranlexdec,2020.2.5,Win32,60
,,,,,,,,,,,,left,4.74652,0,176,176,91,1,tajtásos,KT227,Nő,2001,13,2021-05-14_15h27.47.361,ranlexdec,2020.2.5,Win32,60
,,,,,,,,,,,,left,3.197565,0,177,177,172,1,kettősfém,KT227,Nő,2001,13,2021-05-14_15h27.47.361,ranlexdec,2020.2.5,Win32,60
,,,,,,,,,,,,right,3.230985,0,178,178,15,1,pauzál,KT227,Nő,2001,13,2021-05-14_15h27.47.361,ranlexdec,2020.2.5,Win32,60
,,,,,,,,,,,,right,2.298295,0,179,179,182,1,nagyszámú,KT227,Nő,2001,13,2021-05-14_15h27.47.361,ranlexdec,2020.2.5,Win32,60
,,,,,,,,,,,,right,0.78324,0,180,180,61,1,régész,KT227,Nő,2001,13,2021-05-14_15h27.47.361,ranlexdec,2020.2.5,Win32,60
,,,,,,,,,,,,right,1,0,181,181,48,1,reagál,KT227,Nő,2001,13,2021-05-14_15h27.47.361,ranlexdec,2020.2.5,Win32,60
,,,,,,,,,,,,right,4.81978,0,182,182,189,1,konverzál,KT227,Nő,2001,13,2021-05-14_15h27.47.361,ranlexdec,2020.2.5,Win32,60
,,,,,,,,,,,,right,1.81666,0,183,183,237,1,forgórész,KT227,Nő,2001,13,2021-05-14_15h27.47.361,ranlexdec,2020.2.5,Win32,60
,,,,,,,,,,,,right,1.29215,0,184,184,144,1,rövid,KT227,Nő,2001,13,2021-05-14_15h27.47.361,ranlexdec,2020.2.5,Win32,60
,,,,,,,,,,,,left,2.648535,0,185,185,3,1,tömzsa,KT227,Nő,2001,13,2021-05-14_15h27.47.361,ranlexdec,2020.2.5,Win32,60
,,,,,,,,,,,,right,1.37695,0,186,186,132,1,hatalom,KT227,Nő,2001,13,2021-05-14_15h27.47.361,ranlexdec,2020.2.5,Win32,60
,,,,,,,,,,,,right,3.21468,0,187,187,209,1,hidegház,KT227,Nő,2001,13,2021-05-14_15h27.47.361,ranlexdec,2020.2.5,Win32,60
,,,,,,,,,,,,right,2.33328,0,188,188,152,1,rakódik,KT227,Nő,2001,13,2021-05-14_15h27.47.361,ranlexdec,2020.2.5,Win32,60
,,,,,,,,,,,,left,3.91444,0,189,189,81,1,takorák,KT227,Nő,2001,13,2021-05-14_15h27.47.361,ranlexdec,2020.2.5,Win32,60
,,,,,,,,,,,,right,0.91691,0,190,190,116,1,árus,KT227,Nő,2001,13,2021-05-14_15h27.47.361,ranlexdec,2020.2.5,Win32,60
,,,,,,,,,,,,right,0.71631,0,191,191,184,1,profit,KT227,Nő,2001,13,2021-05-14_15h27.47.361,ranlexdec,2020.2.5,Win32,60
,,,,,,,,,,,,left,1.68275,0,192,192,107,1,kelől,KT227,Nő,2001,13,2021-05-14_15h27.47.361,ranlexdec,2020.2.5,Win32,60
,,,,,,,,,,,,right,0.819535,0,193,193,39,1,könnyelmű,KT227,Nő,2001,13,2021-05-14_15h27.47.361,ranlexdec,2020.2.5,Win32,60
,,,,,,,,,,,,left,1.732475,0,194,194,36,1,tröshet,KT227,Nő,2001,13,2021-05-14_15h27.47.361,ranlexdec,2020.2.5,Win32,60
,,,,,,,,,,,,left,3.48105,0,195,195,195,1,petél,KT227,Nő,2001,13,2021-05-14_15h27.47.361,ranlexdec,2020.2.5,Win32,60
,,,,,,,,,,,,right,1.05002,0,196,196,57,1,lejmol,KT227,Nő,2001,13,2021-05-14_15h27.47.361,ranlexdec,2020.2.5,Win32,60
,,,,,,,,,,,,right,1.816105,0,197,197,115,1,fajansz,KT227,Nő,2001,13,2021-05-14_15h27.47.361,ranlexdec,2020.2.5,Win32,60
,,,,,,,,,,,,right,1.28303,0,198,198,215,1,neoprén,KT227,Nő,2001,13,2021-05-14_15h27.47.361,ranlexdec,2020.2.5,Win32,60
,,,,,,,,,,,,left,2.7859,0,199,199,109,1,vényegő,KT227,Nő,2001,13,2021-05-14_15h27.47.361,ranlexdec,2020.2.5,Win32,60
,,,,,,,,,,,,right,0.83954,0,200,200,148,1,mellényzseb,KT227,Nő,2001,13,2021-05-14_15h27.47.361,ranlexdec,2020.2.5,Win32,60
,,,,,,,,,,,,right,0.716675,0,201,201,177,1,pereg,KT227,Nő,2001,13,2021-05-14_15h27.47.361,ranlexdec,2020.2.5,Win32,60
,,,,,,,,,,,,left,1.04019,0,202,202,134,1,móringol,KT227,Nő,2001,13,2021-05-14_15h27.47.361,ranlexdec,2020.2.5,Win32,60
,,,,,,,,,,,,right,1.356705,0,203,203,146,1,kondenzcsík,KT227,Nő,2001,13,2021-05-14_15h27.47.361,ranlexdec,2020.2.5,Win32,60
,,,,,,,,,,,,right,1.56042,0,204,204,22,1,arzénsav,KT227,Nő,2001,13,2021-05-14_15h27.47.361,ranlexdec,2020.2.5,Win32,60
,,,,,,,,,,,,left,2.584715,0,205,205,191,1,hitódó,KT227,Nő,2001,13,2021-05-14_15h27.47.361,ranlexdec,2020.2.5,Win32,60
,,,,,,,,,,,,left,1.626875,0,206,206,2,1,gyásos,KT227,Nő,2001,13,2021-05-14_15h27.47.361,ranlexdec,2020.2.5,Win32,60
,,,,,,,,,,,,left,1.449435,0,207,207,26,1,aurult,KT227,Nő,2001,13,2021-05-14_15h27.47.361,ranlexdec,2020.2.5,Win32,60
,,,,,,,,,,,,right,1.04685,0,208,208,8,1,kulcscsont,KT227,Nő,2001,13,2021-05-14_15h27.47.361,ranlexdec,2020.2.5,Win32,60
,,,,,,,,,,,,left,2.125525,0,209,209,163,1,kollapszus,KT227,Nő,2001,13,2021-05-14_15h27.47.361,ranlexdec,2020.2.5,Win32,60
,,,,,,,,,,,,left,2.881945,0,210,210,51,1,bajuszfű,KT227,Nő,2001,13,2021-05-14_15h27.47.361,ranlexdec,2020.2.5,Win32,60
,,,,,,,,,,,,left,2.24867,0,211,211,46,1,kurzív,KT227,Nő,2001,13,2021-05-14_15h27.47.361,ranlexdec,2020.2.5,Win32,60
,,,,,,,,,,,,right,3.06448,0,212,212,13,1,törköly,KT227,Nő,2001,13,2021-05-14_15h27.47.361,ranlexdec,2020.2.5,Win32,60
,,,,,,,,,,,,right,1.616575,0,213,213,0,1,irány,KT227,Nő,2001,13,2021-05-14_15h27.47.361,ranlexdec,2020.2.5,Win32,60
,,,,,,,,,,,,right,1.29983,0,214,214,183,1,színpad,KT227,Nő,2001,13,2021-05-14_15h27.47.361,ranlexdec,2020.2.5,Win32,60
,,,,,,,,,,,,right,1.416165,0,215,215,89,1,szokik,KT227,Nő,2001,13,2021-05-14_15h27.47.361,ranlexdec,2020.2.5,Win32,60
,,,,,,,,,,,,left,2.93083,0,216,216,112,1,méhezter,KT227,Nő,2001,13,2021-05-14_15h27.47.361,ranlexdec,2020.2.5,Win32,60
,,,,,,,,,,,,left,1.6162,0,217,217,207,1,diffamál,KT227,Nő,2001,13,2021-05-14_15h27.47.361,ranlexdec,2020.2.5,Win32,60
,,,,,,,,,,,,left,2.481995,0,218,218,216,1,svábtök,KT227,Nő,2001,13,2021-05-14_15h27.47.361,ranlexdec,2020.2.5,Win32,60
,,,,,,,,,,,,right,1.333115,0,219,219,41,1,nagybeteg,KT227,Nő,2001,13,2021-05-14_15h27.47.361,ranlexdec,2020.2.5,Win32,60
,,,,,,,,,,,,right,1.366095,0,220,220,86,1,jármű,KT227,Nő,2001,13,2021-05-14_15h27.47.361,ranlexdec,2020.2.5,Win32,60
,,,,,,,,,,,,left,1.449565,0,221,221,82,1,kvéker,KT227,Nő,2001,13,2021-05-14_15h27.47.361,ranlexdec,2020.2.5,Win32,60
,,,,,,,,,,,,right,0.93297,0,222,222,90,1,orális,KT227,Nő,2001,13,2021-05-14_15h27.47.361,ranlexdec,2020.2.5,Win32,60
,,,,,,,,,,,,right,2.298795,0,223,223,165,1,lépték,KT227,Nő,2001,13,2021-05-14_15h27.47.361,ranlexdec,2020.2.5,Win32,60
,,,,,,,,,,,,right,1.449465,0,224,224,220,1,csontdarab,KT227,Nő,2001,13,2021-05-14_15h27.47.361,ranlexdec,2020.2.5,Win32,60
,,,,,,,,,,,,right,1.03344,0,225,225,78,1,törékeny,KT227,Nő,2001,13,2021-05-14_15h27.47.361,ranlexdec,2020.2.5,Win32,60
,,,,,,,,,,,,left,2.4943,0,226,226,102,1,pentez,KT227,Nő,2001,13,2021-05-14_15h27.47.361,ranlexdec,2020.2.5,Win32,60
,,,,,,,,,,,,right,0.757035,0,227,227,222,1,nyersarany,KT227,Nő,2001,13,2021-05-14_15h27.47.361,ranlexdec,2020.2.5,Win32,60
,,,,,,,,,,,,left,2.125915,0,228,228,94,1,rotor,KT227,Nő,2001,13,2021-05-14_15h27.47.361,ranlexdec,2020.2.5,Win32,60
,,,,,,,,,,,,left,2.034915,0,229,229,66,1,parkkói,KT227,Nő,2001,13,2021-05-14_15h27.47.361,ranlexdec,2020.2.5,Win32,60
,,,,,,,,,,,,right,0.717745,0,230,230,9,1,hajlik,KT227,Nő,2001,13,2021-05-14_15h27.47.361,ranlexdec,2020.2.5,Win32,60
,,,,,,,,,,,,right,0.860755,0,231,231,247,1,ausztrál,KT227,Nő,2001,13,2021-05-14_15h27.47.361,ranlexdec,2020.2.5,Win32,60
,,,,,,,,,,,,right,1.00085,0,232,232,7,1,űrlap,KT227,Nő,2001,13,2021-05-14_15h27.47.361,ranlexdec,2020.2.5,Win32,60
,,,,,,,,,,,,right,1.04539,0,233,233,227,1,kötődik,KT227,Nő,2001,13,2021-05-14_15h27.47.361,ranlexdec,2020.2.5,Win32,60
,,,,,,,,,,,,left,1.682355,0,234,234,84,1,kúpol,KT227,Nő,2001,13,2021-05-14_15h27.47.361,ranlexdec,2020.2.5,Win32,60
,,,,,,,,,,,,right,0.7102,0,235,235,19,1,tangózik,KT227,Nő,2001,13,2021-05-14_15h27.47.361,ranlexdec,2020.2.5,Win32,60
,,,,,,,,,,,,right,0.783815,0,236,236,67,1,szegény,KT227,Nő,2001,13,2021-05-14_15h27.47.361,ranlexdec,2020.2.5,Win32,60
,,,,,,,,,,,,left,2.14999,0,237,237,155,1,megpadék,KT227,Nő,2001,13,2021-05-14_15h27.47.361,ranlexdec,2020.2.5,Win32,60
,,,,,,,,,,,,right,0.94103,0,238,238,34,1,csengettyű,KT227,Nő,2001,13,2021-05-14_15h27.47.361,ranlexdec,2020.2.5,Win32,60
,,,,,,,,,,,,left,1.01237,0,239,239,97,1,vésségi,KT227,Nő,2001,13,2021-05-14_15h27.47.361,ranlexdec,2020.2.5,Win32,60
,,,,,,,,,,,,left,1.50616,0,240,240,198,1,lublika,KT227,Nő,2001,13,2021-05-14_15h27.47.361,ranlexdec,2020.2.5,Win32,60
,,,,,,,,,,,,right,0.868175,0,241,241,85,1,glükóz,KT227,Nő,2001,13,2021-05-14_15h27.47.361,ranlexdec,2020.2.5,Win32,60
,,,,,,,,,,,,left,1.69436,0,242,242,75,1,karnogó,KT227,Nő,2001,13,2021-05-14_15h27.47.361,ranlexdec,2020.2.5,Win32,60
,,,,,,,,,,,,left,2.232395,0,243,243,118,1,libling,KT227,Nő,2001,13,2021-05-14_15h27.47.361,ranlexdec,2020.2.5,Win32,60
,,,,,,,,,,,,left,2.658575,0,244,244,204,1,kocskesi,KT227,Nő,2001,13,2021-05-14_15h27.47.361,ranlexdec,2020.2.5,Win32,60
,,,,,,,,,,,,left,3.26477,0,245,245,4,1,viszonvád,KT227,Nő,2001,13,2021-05-14_15h27.47.361,ranlexdec,2020.2.5,Win32,60
,,,,,,,,,,,,right,1.3494,0,246,246,202,1,abszint,KT227,Nő,2001,13,2021-05-14_15h27.47.361,ranlexdec,2020.2.5,Win32,60
,,,,,,,,,,,,left,1.6664,0,247,247,125,1,úszamos,KT227,Nő,2001,13,2021-05-14_15h27.47.361,ranlexdec,2020.2.5,Win32,60
,,,,,,,,,,,,right,1.000845,0,248,248,114,1,tartalom,KT227,Nő,2001,13,2021-05-14_15h27.47.361,ranlexdec,2020.2.5,Win32,60
,,,,,,,,,,,,left,1.61618,0,249,249,186,1,piláf,KT227,Nő,2001,13,2021-05-14_15h27.47.361,ranlexdec,2020.2.5,Win32,60
