ready2_2.keys,ready2_2.rt,ready2.keys,ready2.rt,key_resp.keys,key_resp.rt,key_resp_3.keys,key_resp_3.rt,key_resp_2.keys,key_resp_2.rt,ready3.keys,ready3.rt,resp.keys,resp.rt,withinBlock.thisRepN,withinBlock.thisTrialN,withinBlock.thisN,withinBlock.thisIndex,withinBlock.ran,word,Azonosító,Az Ön neme,Születési éve,Hány évet töltött az iskolapadban (egyetemet is beleértve),date,expName,psychopyVersion,OS,frameRate
space,70.65062,space,35.66594,right,1.63303,left,1.58311,right,1.416065,right,12.65306,left,2.54215,0,0,0,112,1,méhezter,KA114,nő,1999,15,2021-05-14_14h51.57.506,ranlexdec,2020.2.5,Win32,60
,,,,,,,,,,,,right,1.019935,0,1,1,53,1,puritán,KA114,nő,1999,15,2021-05-14_14h51.57.506,ranlexdec,2020.2.5,Win32,60
,,,,,,,,,,,,right,1.395175,0,2,2,14,1,selypít,KA114,nő,1999,15,2021-05-14_14h51.57.506,ranlexdec,2020.2.5,Win32,60
,,,,,,,,,,,,right,2.115595,0,3,3,19,1,tangózik,KA114,nő,1999,15,2021-05-14_14h51.57.506,ranlexdec,2020.2.5,Win32,60
,,,,,,,,,,,,right,0.72672,0,4,4,7,1,űrlap,KA114,nő,1999,15,2021-05-14_14h51.57.506,ranlexdec,2020.2.5,Win32,60
,,,,,,,,,,,,right,1.77902,0,5,5,133,1,hübrisz,KA114,nő,1999,15,2021-05-14_14h51.57.506,ranlexdec,2020.2.5,Win32,60
,,,,,,,,,,,,right,0.935165,0,6,6,20,1,század,KA114,nő,1999,15,2021-05-14_14h51.57.506,ranlexdec,2020.2.5,Win32,60
,,,,,,,,,,,,left,2.24462,0,7,7,186,1,piláf,KA114,nő,1999,15,2021-05-14_14h51.57.506,ranlexdec,2020.2.5,Win32,60
,,,,,,,,,,,,right,0.936845,0,8,8,213,1,eszköz,KA114,nő,1999,15,2021-05-14_14h51.57.506,ranlexdec,2020.2.5,Win32,60
,,,,,,,,,,,,left,2.3691,0,9,9,97,1,vésségi,KA114,nő,1999,15,2021-05-14_14h51.57.506,ranlexdec,2020.2.5,Win32,60
,,,,,,,,,,,,right,1.233425,0,10,10,246,1,beton,KA114,nő,1999,15,2021-05-14_14h51.57.506,ranlexdec,2020.2.5,Win32,60
,,,,,,,,,,,,right,4.35449,0,11,11,206,1,horizont,KA114,nő,1999,15,2021-05-14_14h51.57.506,ranlexdec,2020.2.5,Win32,60
,,,,,,,,,,,,right,2.03243,0,12,12,172,1,kettősfém,KA114,nő,1999,15,2021-05-14_14h51.57.506,ranlexdec,2020.2.5,Win32,60
,,,,,,,,,,,,right,1.22196,0,13,13,27,1,sporthorgász,KA114,nő,1999,15,2021-05-14_14h51.57.506,ranlexdec,2020.2.5,Win32,60
,,,,,,,,,,,,right,0.76161,0,14,14,67,1,szegény,KA114,nő,1999,15,2021-05-14_14h51.57.506,ranlexdec,2020.2.5,Win32,60
,,,,,,,,,,,,right,1.45955,0,15,15,249,1,kencéz,KA114,nő,1999,15,2021-05-14_14h51.57.506,ranlexdec,2020.2.5,Win32,60
,,,,,,,,,,,,left,2.460675,0,16,16,117,1,ószeven,KA114,nő,1999,15,2021-05-14_14h51.57.506,ranlexdec,2020.2.5,Win32,60
,,,,,,,,,,,,right,1.01346,0,17,17,147,1,referál,KA114,nő,1999,15,2021-05-14_14h51.57.506,ranlexdec,2020.2.5,Win32,60
,,,,,,,,,,,,right,0.726115,0,18,18,161,1,példakép,KA114,nő,1999,15,2021-05-14_14h51.57.506,ranlexdec,2020.2.5,Win32,60
,,,,,,,,,,,,right,2.066245,0,19,19,39,1,könnyelmű,KA114,nő,1999,15,2021-05-14_14h51.57.506,ranlexdec,2020.2.5,Win32,60
,,,,,,,,,,,,left,1.299785,0,20,20,71,1,extuál,KA114,nő,1999,15,2021-05-14_14h51.57.506,ranlexdec,2020.2.5,Win32,60
,,,,,,,,,,,,right,0.960565,0,21,21,170,1,változik,KA114,nő,1999,15,2021-05-14_14h51.57.506,ranlexdec,2020.2.5,Win32,60
,,,,,,,,,,,,left,2.37292,0,22,22,197,1,krakéler,KA114,nő,1999,15,2021-05-14_14h51.57.506,ranlexdec,2020.2.5,Win32,60
,,,,,,,,,,,,right,0.84538,0,23,23,241,1,kárpit,KA114,nő,1999,15,2021-05-14_14h51.57.506,ranlexdec,2020.2.5,Win32,60
,,,,,,,,,,,,right,1.216635,0,24,24,95,1,skubizik,KA114,nő,1999,15,2021-05-14_14h51.57.506,ranlexdec,2020.2.5,Win32,60
,,,,,,,,,,,,right,1.00078,0,25,25,159,1,elegy,KA114,nő,1999,15,2021-05-14_14h51.57.506,ranlexdec,2020.2.5,Win32,60
,,,,,,,,,,,,right,2.938035,0,26,26,55,1,látszik,KA114,nő,1999,15,2021-05-14_14h51.57.506,ranlexdec,2020.2.5,Win32,60
,,,,,,,,,,,,left,1.024495,0,27,27,224,1,truccol,KA114,nő,1999,15,2021-05-14_14h51.57.506,ranlexdec,2020.2.5,Win32,60
,,,,,,,,,,,,right,0.647335,0,28,28,177,1,pereg,KA114,nő,1999,15,2021-05-14_14h51.57.506,ranlexdec,2020.2.5,Win32,60
,,,,,,,,,,,,left,1.52468,0,29,29,29,1,novagár,KA114,nő,1999,15,2021-05-14_14h51.57.506,ranlexdec,2020.2.5,Win32,60
,,,,,,,,,,,,right,1.601625,0,30,30,243,1,dipeptid,KA114,nő,1999,15,2021-05-14_14h51.57.506,ranlexdec,2020.2.5,Win32,60
,,,,,,,,,,,,right,2.45431,0,31,31,199,1,ború,KA114,nő,1999,15,2021-05-14_14h51.57.506,ranlexdec,2020.2.5,Win32,60
,,,,,,,,,,,,right,0.688125,0,32,32,214,1,tenger,KA114,nő,1999,15,2021-05-14_14h51.57.506,ranlexdec,2020.2.5,Win32,60
,,,,,,,,,,,,right,1.3766,0,33,33,207,1,diffamál,KA114,nő,1999,15,2021-05-14_14h51.57.506,ranlexdec,2020.2.5,Win32,60
,,,,,,,,,,,,right,2.076085,0,34,34,152,1,rakódik,KA114,nő,1999,15,2021-05-14_14h51.57.506,ranlexdec,2020.2.5,Win32,60
,,,,,,,,,,,,right,0.68281,0,35,35,178,1,sziszeg,KA114,nő,1999,15,2021-05-14_14h51.57.506,ranlexdec,2020.2.5,Win32,60
,,,,,,,,,,,,left,3.68102,0,36,36,24,1,kosi,KA114,nő,1999,15,2021-05-14_14h51.57.506,ranlexdec,2020.2.5,Win32,60
,,,,,,,,,,,,left,4.240965,0,37,37,229,1,lemesség,KA114,nő,1999,15,2021-05-14_14h51.57.506,ranlexdec,2020.2.5,Win32,60
,,,,,,,,,,,,left,3.031745,0,38,38,57,1,lejmol,KA114,nő,1999,15,2021-05-14_14h51.57.506,ranlexdec,2020.2.5,Win32,60
,,,,,,,,,,,,right,3.03534,0,39,39,99,1,sárgaréz,KA114,nő,1999,15,2021-05-14_14h51.57.506,ranlexdec,2020.2.5,Win32,60
,,,,,,,,,,,,right,0.675075,0,40,40,90,1,orális,KA114,nő,1999,15,2021-05-14_14h51.57.506,ranlexdec,2020.2.5,Win32,60
,,,,,,,,,,,,left,4.352945,0,41,41,173,1,glosszáz,KA114,nő,1999,15,2021-05-14_14h51.57.506,ranlexdec,2020.2.5,Win32,60
,,,,,,,,,,,,left,2.614475,0,42,42,219,1,szimboló,KA114,nő,1999,15,2021-05-14_14h51.57.506,ranlexdec,2020.2.5,Win32,60
,,,,,,,,,,,,right,0.895855,0,43,43,211,1,tábornagy,KA114,nő,1999,15,2021-05-14_14h51.57.506,ranlexdec,2020.2.5,Win32,60
,,,,,,,,,,,,right,1.82243,0,44,44,51,1,bajuszfű,KA114,nő,1999,15,2021-05-14_14h51.57.506,ranlexdec,2020.2.5,Win32,60
,,,,,,,,,,,,right,0.66941,0,45,45,124,1,alkalom,KA114,nő,1999,15,2021-05-14_14h51.57.506,ranlexdec,2020.2.5,Win32,60
,,,,,,,,,,,,right,1.016265,0,46,46,202,1,abszint,KA114,nő,1999,15,2021-05-14_14h51.57.506,ranlexdec,2020.2.5,Win32,60
,,,,,,,,,,,,right,0.73903,0,47,47,98,1,mítosz,KA114,nő,1999,15,2021-05-14_14h51.57.506,ranlexdec,2020.2.5,Win32,60
,,,,,,,,,,,,right,0.77799,0,48,48,11,1,viszkóz,KA114,nő,1999,15,2021-05-14_14h51.57.506,ranlexdec,2020.2.5,Win32,60
,,,,,,,,,,,,right,0.690175,0,49,49,227,1,kötődik,KA114,nő,1999,15,2021-05-14_14h51.57.506,ranlexdec,2020.2.5,Win32,60
,,,,,,,,,,,,left,3.34875,0,50,50,108,1,konyrúd,KA114,nő,1999,15,2021-05-14_14h51.57.506,ranlexdec,2020.2.5,Win32,60
,,,,,,,,,,,,left,4.344495,0,51,51,42,1,összalaj,KA114,nő,1999,15,2021-05-14_14h51.57.506,ranlexdec,2020.2.5,Win32,60
,,,,,,,,,,,,right,0.574625,0,52,52,244,1,kislány,KA114,nő,1999,15,2021-05-14_14h51.57.506,ranlexdec,2020.2.5,Win32,60
,,,,,,,,,,,,right,0.567605,0,53,53,58,1,barát,KA114,nő,1999,15,2021-05-14_14h51.57.506,ranlexdec,2020.2.5,Win32,60
,,,,,,,,,,,,left,2.11926,0,54,54,16,1,cséltás,KA114,nő,1999,15,2021-05-14_14h51.57.506,ranlexdec,2020.2.5,Win32,60
,,,,,,,,,,,,left,1.92829,0,55,55,75,1,karnogó,KA114,nő,1999,15,2021-05-14_14h51.57.506,ranlexdec,2020.2.5,Win32,60
,,,,,,,,,,,,left,1.695425,0,56,56,205,1,mimézis,KA114,nő,1999,15,2021-05-14_14h51.57.506,ranlexdec,2020.2.5,Win32,60
,,,,,,,,,,,,right,1.17815,0,57,57,129,1,turné,KA114,nő,1999,15,2021-05-14_14h51.57.506,ranlexdec,2020.2.5,Win32,60
,,,,,,,,,,,,right,1.166915,0,58,58,182,1,nagyszámú,KA114,nő,1999,15,2021-05-14_14h51.57.506,ranlexdec,2020.2.5,Win32,60
,,,,,,,,,,,,right,1.518465,0,59,59,145,1,kurtít,KA114,nő,1999,15,2021-05-14_14h51.57.506,ranlexdec,2020.2.5,Win32,60
,,,,,,,,,,,,right,0.667335,0,60,60,221,1,törődik,KA114,nő,1999,15,2021-05-14_14h51.57.506,ranlexdec,2020.2.5,Win32,60
,,,,,,,,,,,,right,0.97445,0,61,61,15,1,pauzál,KA114,nő,1999,15,2021-05-14_14h51.57.506,ranlexdec,2020.2.5,Win32,60
,,,,,,,,,,,,left,3.14465,0,62,62,204,1,kocskesi,KA114,nő,1999,15,2021-05-14_14h51.57.506,ranlexdec,2020.2.5,Win32,60
,,,,,,,,,,,,left,1.077075,0,63,63,218,1,tortya,KA114,nő,1999,15,2021-05-14_14h51.57.506,ranlexdec,2020.2.5,Win32,60
,,,,,,,,,,,,right,0.71646,0,64,64,217,1,ifjít,KA114,nő,1999,15,2021-05-14_14h51.57.506,ranlexdec,2020.2.5,Win32,60
,,,,,,,,,,,,left,1.26759,0,65,65,121,1,aggófű,KA114,nő,1999,15,2021-05-14_14h51.57.506,ranlexdec,2020.2.5,Win32,60
,,,,,,,,,,,,right,0.660165,0,66,66,130,1,derít,KA114,nő,1999,15,2021-05-14_14h51.57.506,ranlexdec,2020.2.5,Win32,60
,,,,,,,,,,,,right,0.81741,0,67,67,79,1,extrém,KA114,nő,1999,15,2021-05-14_14h51.57.506,ranlexdec,2020.2.5,Win32,60
,,,,,,,,,,,,left,1.78293,0,68,68,212,1,farkasbab,KA114,nő,1999,15,2021-05-14_14h51.57.506,ranlexdec,2020.2.5,Win32,60
,,,,,,,,,,,,left,0.8119,0,69,69,21,1,heveny,KA114,nő,1999,15,2021-05-14_14h51.57.506,ranlexdec,2020.2.5,Win32,60
,,,,,,,,,,,,right,0.849295,0,70,70,209,1,hidegház,KA114,nő,1999,15,2021-05-14_14h51.57.506,ranlexdec,2020.2.5,Win32,60
,,,,,,,,,,,,right,2.35155,0,71,71,158,1,hidroxid,KA114,nő,1999,15,2021-05-14_14h51.57.506,ranlexdec,2020.2.5,Win32,60
,,,,,,,,,,,,right,2.55097,0,72,72,54,1,fürkész,KA114,nő,1999,15,2021-05-14_14h51.57.506,ranlexdec,2020.2.5,Win32,60
,,,,,,,,,,,,right,2.269315,0,73,73,118,1,libling,KA114,nő,1999,15,2021-05-14_14h51.57.506,ranlexdec,2020.2.5,Win32,60
,,,,,,,,,,,,right,3.541515,0,74,74,237,1,forgórész,KA114,nő,1999,15,2021-05-14_14h51.57.506,ranlexdec,2020.2.5,Win32,60
,,,,,,,,,,,,left,2.28606,0,75,75,134,1,móringol,KA114,nő,1999,15,2021-05-14_14h51.57.506,ranlexdec,2020.2.5,Win32,60
,,,,,,,,,,,,right,1.07502,0,76,76,111,1,koenzim,KA114,nő,1999,15,2021-05-14_14h51.57.506,ranlexdec,2020.2.5,Win32,60
,,,,,,,,,,,,right,0.69989,0,77,77,226,1,szalicil,KA114,nő,1999,15,2021-05-14_14h51.57.506,ranlexdec,2020.2.5,Win32,60
,,,,,,,,,,,,right,1.91958,0,78,78,56,1,kanalaz,KA114,nő,1999,15,2021-05-14_14h51.57.506,ranlexdec,2020.2.5,Win32,60
,,,,,,,,,,,,left,1.81835,0,79,79,139,1,vároló,KA114,nő,1999,15,2021-05-14_14h51.57.506,ranlexdec,2020.2.5,Win32,60
,,,,,,,,,,,,right,3.47181,0,80,80,64,1,hálózsák,KA114,nő,1999,15,2021-05-14_14h51.57.506,ranlexdec,2020.2.5,Win32,60
,,,,,,,,,,,,left,1.62344,0,81,81,190,1,rámáz,KA114,nő,1999,15,2021-05-14_14h51.57.506,ranlexdec,2020.2.5,Win32,60
,,,,,,,,,,,,left,5.019685,0,82,82,131,1,vetézmés,KA114,nő,1999,15,2021-05-14_14h51.57.506,ranlexdec,2020.2.5,Win32,60
,,,,,,,,,,,,right,0.690085,0,83,83,86,1,jármű,KA114,nő,1999,15,2021-05-14_14h51.57.506,ranlexdec,2020.2.5,Win32,60
,,,,,,,,,,,,right,1.73358,0,84,84,73,1,olaj,KA114,nő,1999,15,2021-05-14_14h51.57.506,ranlexdec,2020.2.5,Win32,60
,,,,,,,,,,,,left,1.39346,0,85,85,107,1,kelől,KA114,nő,1999,15,2021-05-14_14h51.57.506,ranlexdec,2020.2.5,Win32,60
,,,,,,,,,,,,left,3.51774,0,86,86,18,1,csapattest,KA114,nő,1999,15,2021-05-14_14h51.57.506,ranlexdec,2020.2.5,Win32,60
,,,,,,,,,,,,right,0.957265,0,87,87,63,1,viszkózus,KA114,nő,1999,15,2021-05-14_14h51.57.506,ranlexdec,2020.2.5,Win32,60
,,,,,,,,,,,,right,1.816545,0,88,88,228,1,tarol,KA114,nő,1999,15,2021-05-14_14h51.57.506,ranlexdec,2020.2.5,Win32,60
,,,,,,,,,,,,right,0.71686,0,89,89,33,1,kalcium,KA114,nő,1999,15,2021-05-14_14h51.57.506,ranlexdec,2020.2.5,Win32,60
,,,,,,,,,,,,right,3.33348,0,90,90,248,1,örmény,KA114,nő,1999,15,2021-05-14_14h51.57.506,ranlexdec,2020.2.5,Win32,60
,,,,,,,,,,,,right,0.85587,0,91,91,59,1,ómagyar,KA114,nő,1999,15,2021-05-14_14h51.57.506,ranlexdec,2020.2.5,Win32,60
,,,,,,,,,,,,left,2.193,0,92,92,84,1,kúpol,KA114,nő,1999,15,2021-05-14_14h51.57.506,ranlexdec,2020.2.5,Win32,60
,,,,,,,,,,,,left,3.153835,0,93,93,115,1,fajansz,KA114,nő,1999,15,2021-05-14_14h51.57.506,ranlexdec,2020.2.5,Win32,60
,,,,,,,,,,,,right,0.722535,0,94,94,138,1,gyűjtemény,KA114,nő,1999,15,2021-05-14_14h51.57.506,ranlexdec,2020.2.5,Win32,60
,,,,,,,,,,,,left,1.05615,0,95,95,68,1,kitin,KA114,nő,1999,15,2021-05-14_14h51.57.506,ranlexdec,2020.2.5,Win32,60
,,,,,,,,,,,,right,1.915595,0,96,96,154,1,keresztény,KA114,nő,1999,15,2021-05-14_14h51.57.506,ranlexdec,2020.2.5,Win32,60
,,,,,,,,,,,,left,2.09298,0,97,97,198,1,lublika,KA114,nő,1999,15,2021-05-14_14h51.57.506,ranlexdec,2020.2.5,Win32,60
,,,,,,,,,,,,right,2.05521,0,98,98,176,1,bélyeg,KA114,nő,1999,15,2021-05-14_14h51.57.506,ranlexdec,2020.2.5,Win32,60
,,,,,,,,,,,,right,0.687945,0,99,99,31,1,iszlám,KA114,nő,1999,15,2021-05-14_14h51.57.506,ranlexdec,2020.2.5,Win32,60
,,,,,,,,,,,,right,1.820885,0,100,100,136,1,rücsök,KA114,nő,1999,15,2021-05-14_14h51.57.506,ranlexdec,2020.2.5,Win32,60
,,,,,,,,,,,,right,0.98319,0,101,101,85,1,glükóz,KA114,nő,1999,15,2021-05-14_14h51.57.506,ranlexdec,2020.2.5,Win32,60
,,,,,,,,,,,,left,3.19258,0,102,102,74,1,püffeszt,KA114,nő,1999,15,2021-05-14_14h51.57.506,ranlexdec,2020.2.5,Win32,60
,,,,,,,,,,,,right,1.58315,0,103,103,9,1,hajlik,KA114,nő,1999,15,2021-05-14_14h51.57.506,ranlexdec,2020.2.5,Win32,60
,,,,,,,,,,,,left,2.177095,0,104,104,5,1,retta,KA114,nő,1999,15,2021-05-14_14h51.57.506,ranlexdec,2020.2.5,Win32,60
,,,,,,,,,,,,right,6.637985,0,105,105,162,1,nimbus,KA114,nő,1999,15,2021-05-14_14h51.57.506,ranlexdec,2020.2.5,Win32,60
,,,,,,,,,,,,right,1.449375,0,106,106,235,1,transzplantál,KA114,nő,1999,15,2021-05-14_14h51.57.506,ranlexdec,2020.2.5,Win32,60
,,,,,,,,,,,,right,0.878575,0,107,107,179,1,töredék,KA114,nő,1999,15,2021-05-14_14h51.57.506,ranlexdec,2020.2.5,Win32,60
,,,,,,,,,,,,right,0.826065,0,108,108,48,1,reagál,KA114,nő,1999,15,2021-05-14_14h51.57.506,ranlexdec,2020.2.5,Win32,60
,,,,,,,,,,,,right,0.48529,0,109,109,104,1,dolog,KA114,nő,1999,15,2021-05-14_14h51.57.506,ranlexdec,2020.2.5,Win32,60
,,,,,,,,,,,,left,1.41889,0,110,110,216,1,svábtök,KA114,nő,1999,15,2021-05-14_14h51.57.506,ranlexdec,2020.2.5,Win32,60
,,,,,,,,,,,,left,2.41653,0,111,111,137,1,aragas,KA114,nő,1999,15,2021-05-14_14h51.57.506,ranlexdec,2020.2.5,Win32,60
,,,,,,,,,,,,right,1.672795,0,112,112,135,1,ion,KA114,nő,1999,15,2021-05-14_14h51.57.506,ranlexdec,2020.2.5,Win32,60
,,,,,,,,,,,,left,1.850795,0,113,113,157,1,káder,KA114,nő,1999,15,2021-05-14_14h51.57.506,ranlexdec,2020.2.5,Win32,60
,,,,,,,,,,,,right,0.60997,0,114,114,110,1,időszak,KA114,nő,1999,15,2021-05-14_14h51.57.506,ranlexdec,2020.2.5,Win32,60
,,,,,,,,,,,,right,0.600415,0,115,115,140,1,diktátor,KA114,nő,1999,15,2021-05-14_14h51.57.506,ranlexdec,2020.2.5,Win32,60
,,,,,,,,,,,,right,1.020805,0,116,116,120,1,komál,KA114,nő,1999,15,2021-05-14_14h51.57.506,ranlexdec,2020.2.5,Win32,60
,,,,,,,,,,,,right,0.853105,0,117,117,247,1,ausztrál,KA114,nő,1999,15,2021-05-14_14h51.57.506,ranlexdec,2020.2.5,Win32,60
,,,,,,,,,,,,right,0.67132,0,118,118,210,1,karakter,KA114,nő,1999,15,2021-05-14_14h51.57.506,ranlexdec,2020.2.5,Win32,60
,,,,,,,,,,,,left,1.50258,0,119,119,222,1,nyersarany,KA114,nő,1999,15,2021-05-14_14h51.57.506,ranlexdec,2020.2.5,Win32,60
,,,,,,,,,,,,left,2.233605,0,120,120,23,1,szelégül,KA114,nő,1999,15,2021-05-14_14h51.57.506,ranlexdec,2020.2.5,Win32,60
,,,,,,,,,,,,left,1.442145,0,121,121,4,1,viszonvád,KA114,nő,1999,15,2021-05-14_14h51.57.506,ranlexdec,2020.2.5,Win32,60
,,,,,,,,,,,,right,2.524555,0,122,122,8,1,kulcscsont,KA114,nő,1999,15,2021-05-14_14h51.57.506,ranlexdec,2020.2.5,Win32,60
,,,,,,,,,,,,right,0.683545,0,123,123,101,1,nukleon,KA114,nő,1999,15,2021-05-14_14h51.57.506,ranlexdec,2020.2.5,Win32,60
,,,,,,,,,,,,left,1.008375,0,124,124,62,1,bizmut,KA114,nő,1999,15,2021-05-14_14h51.57.506,ranlexdec,2020.2.5,Win32,60
,,,,,,,,,,,,left,1.33469,0,125,125,36,1,tröshet,KA114,nő,1999,15,2021-05-14_14h51.57.506,ranlexdec,2020.2.5,Win32,60
,,,,,,,,,,,,right,1.53143,0,126,126,113,1,piktogram,KA114,nő,1999,15,2021-05-14_14h51.57.506,ranlexdec,2020.2.5,Win32,60
,,,,,,,,,,,,right,1.31997,0,127,127,245,1,ellenfél,KA114,nő,1999,15,2021-05-14_14h51.57.506,ranlexdec,2020.2.5,Win32,60
,,,,,,,,,,,,left,1.58522,0,128,128,49,1,ernyak,KA114,nő,1999,15,2021-05-14_14h51.57.506,ranlexdec,2020.2.5,Win32,60
,,,,,,,,,,,,left,1.09377,0,129,129,192,1,norvend,KA114,nő,1999,15,2021-05-14_14h51.57.506,ranlexdec,2020.2.5,Win32,60
,,,,,,,,,,,,right,2.856905,0,130,130,156,1,lazúroz,KA114,nő,1999,15,2021-05-14_14h51.57.506,ranlexdec,2020.2.5,Win32,60
,,,,,,,,,,,,right,3.341385,0,131,131,231,1,igény,KA114,nő,1999,15,2021-05-14_14h51.57.506,ranlexdec,2020.2.5,Win32,60
,,,,,,,,,,,,right,1.62772,0,132,132,82,1,kvéker,KA114,nő,1999,15,2021-05-14_14h51.57.506,ranlexdec,2020.2.5,Win32,60
,,,,,,,,,,,,right,4.15414,0,133,133,242,1,rekvizit,KA114,nő,1999,15,2021-05-14_14h51.57.506,ranlexdec,2020.2.5,Win32,60
,,,,,,,,,,,,right,0.673595,0,134,134,183,1,színpad,KA114,nő,1999,15,2021-05-14_14h51.57.506,ranlexdec,2020.2.5,Win32,60
,,,,,,,,,,,,right,0.69995,0,135,135,100,1,balközép,KA114,nő,1999,15,2021-05-14_14h51.57.506,ranlexdec,2020.2.5,Win32,60
,,,,,,,,,,,,right,1.63774,0,136,136,174,1,cianid,KA114,nő,1999,15,2021-05-14_14h51.57.506,ranlexdec,2020.2.5,Win32,60
,,,,,,,,,,,,right,3.092545,0,137,137,44,1,ingváll,KA114,nő,1999,15,2021-05-14_14h51.57.506,ranlexdec,2020.2.5,Win32,60
,,,,,,,,,,,,right,2.016645,0,138,138,88,1,pohár,KA114,nő,1999,15,2021-05-14_14h51.57.506,ranlexdec,2020.2.5,Win32,60
,,,,,,,,,,,,right,0.60183,0,139,139,208,1,lélek,KA114,nő,1999,15,2021-05-14_14h51.57.506,ranlexdec,2020.2.5,Win32,60
,,,,,,,,,,,,right,0.859645,0,140,140,22,1,arzénsav,KA114,nő,1999,15,2021-05-14_14h51.57.506,ranlexdec,2020.2.5,Win32,60
,,,,,,,,,,,,left,2.251765,0,141,141,149,1,anorák,KA114,nő,1999,15,2021-05-14_14h51.57.506,ranlexdec,2020.2.5,Win32,60
,,,,,,,,,,,,left,1.89099,0,142,142,13,1,törköly,KA114,nő,1999,15,2021-05-14_14h51.57.506,ranlexdec,2020.2.5,Win32,60
,,,,,,,,,,,,right,0.79979,0,143,143,194,1,végbél,KA114,nő,1999,15,2021-05-14_14h51.57.506,ranlexdec,2020.2.5,Win32,60
,,,,,,,,,,,,left,1.852015,0,144,144,2,1,gyásos,KA114,nő,1999,15,2021-05-14_14h51.57.506,ranlexdec,2020.2.5,Win32,60
,,,,,,,,,,,,right,1.173835,0,145,145,201,1,szempont,KA114,nő,1999,15,2021-05-14_14h51.57.506,ranlexdec,2020.2.5,Win32,60
,,,,,,,,,,,,left,2.11662,0,146,146,96,1,alfél,KA114,nő,1999,15,2021-05-14_14h51.57.506,ranlexdec,2020.2.5,Win32,60
,,,,,,,,,,,,right,2.610645,0,147,147,47,1,döföl,KA114,nő,1999,15,2021-05-14_14h51.57.506,ranlexdec,2020.2.5,Win32,60
,,,,,,,,,,,,left,1.94214,0,148,148,70,1,lakotthely,KA114,nő,1999,15,2021-05-14_14h51.57.506,ranlexdec,2020.2.5,Win32,60
,,,,,,,,,,,,right,6.699945,0,149,149,220,1,csontdarab,KA114,nő,1999,15,2021-05-14_14h51.57.506,ranlexdec,2020.2.5,Win32,60
,,,,,,,,,,,,right,0.633945,0,150,150,28,1,gazdag,KA114,nő,1999,15,2021-05-14_14h51.57.506,ranlexdec,2020.2.5,Win32,60
,,,,,,,,,,,,right,0.94376,0,151,151,187,1,testnedv,KA114,nő,1999,15,2021-05-14_14h51.57.506,ranlexdec,2020.2.5,Win32,60
,,,,,,,,,,,,right,0.53718,0,152,152,151,1,komplex,KA114,nő,1999,15,2021-05-14_14h51.57.506,ranlexdec,2020.2.5,Win32,60
,,,,,,,,,,,,right,0.554705,0,153,153,184,1,profit,KA114,nő,1999,15,2021-05-14_14h51.57.506,ranlexdec,2020.2.5,Win32,60
,,,,,,,,,,,,right,2.036215,0,154,154,92,1,lágyék,KA114,nő,1999,15,2021-05-14_14h51.57.506,ranlexdec,2020.2.5,Win32,60
,,,,,,,,,,,,right,1.742085,0,155,155,200,1,biliárd,KA114,nő,1999,15,2021-05-14_14h51.57.506,ranlexdec,2020.2.5,Win32,60
,,,,,,,,,,,,right,0.757135,0,156,156,116,1,árus,KA114,nő,1999,15,2021-05-14_14h51.57.506,ranlexdec,2020.2.5,Win32,60
,,,,,,,,,,,,right,3.148475,0,157,157,45,1,népszerű,KA114,nő,1999,15,2021-05-14_14h51.57.506,ranlexdec,2020.2.5,Win32,60
,,,,,,,,,,,,left,3.88168,0,158,158,180,1,adszorbens,KA114,nő,1999,15,2021-05-14_14h51.57.506,ranlexdec,2020.2.5,Win32,60
,,,,,,,,,,,,left,3.081405,0,159,159,164,1,kurzivál,KA114,nő,1999,15,2021-05-14_14h51.57.506,ranlexdec,2020.2.5,Win32,60
,,,,,,,,,,,,right,0.68375,0,160,160,10,1,nárcisz,KA114,nő,1999,15,2021-05-14_14h51.57.506,ranlexdec,2020.2.5,Win32,60
,,,,,,,,,,,,right,2.57457,0,161,161,146,1,kondenzcsík,KA114,nő,1999,15,2021-05-14_14h51.57.506,ranlexdec,2020.2.5,Win32,60
,,,,,,,,,,,,left,3.483455,0,162,162,109,1,vényegő,KA114,nő,1999,15,2021-05-14_14h51.57.506,ranlexdec,2020.2.5,Win32,60
,,,,,,,,,,,,left,3.599955,0,163,163,17,1,magmatit,KA114,nő,1999,15,2021-05-14_14h51.57.506,ranlexdec,2020.2.5,Win32,60
,,,,,,,,,,,,right,2.020595,0,164,164,78,1,törékeny,KA114,nő,1999,15,2021-05-14_14h51.57.506,ranlexdec,2020.2.5,Win32,60
,,,,,,,,,,,,right,1.066135,0,165,165,89,1,szokik,KA114,nő,1999,15,2021-05-14_14h51.57.506,ranlexdec,2020.2.5,Win32,60
,,,,,,,,,,,,left,1.35063,0,166,166,77,1,egant,KA114,nő,1999,15,2021-05-14_14h51.57.506,ranlexdec,2020.2.5,Win32,60
,,,,,,,,,,,,left,2.01815,0,167,167,30,1,dádá,KA114,nő,1999,15,2021-05-14_14h51.57.506,ranlexdec,2020.2.5,Win32,60
,,,,,,,,,,,,right,2.877985,0,168,168,1,1,csapdáz,KA114,nő,1999,15,2021-05-14_14h51.57.506,ranlexdec,2020.2.5,Win32,60
,,,,,,,,,,,,left,3.256795,0,169,169,26,1,aurult,KA114,nő,1999,15,2021-05-14_14h51.57.506,ranlexdec,2020.2.5,Win32,60
,,,,,,,,,,,,left,2.851195,0,170,170,153,1,kontrapunkt,KA114,nő,1999,15,2021-05-14_14h51.57.506,ranlexdec,2020.2.5,Win32,60
,,,,,,,,,,,,right,4.552845,0,171,171,143,1,rojtoz,KA114,nő,1999,15,2021-05-14_14h51.57.506,ranlexdec,2020.2.5,Win32,60
,,,,,,,,,,,,left,2.849135,0,172,172,50,1,csenyei,KA114,nő,1999,15,2021-05-14_14h51.57.506,ranlexdec,2020.2.5,Win32,60
,,,,,,,,,,,,left,2.44439,0,173,173,191,1,hitódó,KA114,nő,1999,15,2021-05-14_14h51.57.506,ranlexdec,2020.2.5,Win32,60
,,,,,,,,,,,,left,3.993715,0,174,174,65,1,infimum,KA114,nő,1999,15,2021-05-14_14h51.57.506,ranlexdec,2020.2.5,Win32,60
,,,,,,,,,,,,right,0.589335,0,175,175,196,1,dolgozik,KA114,nő,1999,15,2021-05-14_14h51.57.506,ranlexdec,2020.2.5,Win32,60
,,,,,,,,,,,,right,1.88572,0,176,176,128,1,csüggedez,KA114,nő,1999,15,2021-05-14_14h51.57.506,ranlexdec,2020.2.5,Win32,60
,,,,,,,,,,,,right,1.29992,0,177,177,0,1,irány,KA114,nő,1999,15,2021-05-14_14h51.57.506,ranlexdec,2020.2.5,Win32,60
,,,,,,,,,,,,right,0.90919,0,178,178,34,1,csengettyű,KA114,nő,1999,15,2021-05-14_14h51.57.506,ranlexdec,2020.2.5,Win32,60
,,,,,,,,,,,,right,1.79336,0,179,179,46,1,kurzív,KA114,nő,1999,15,2021-05-14_14h51.57.506,ranlexdec,2020.2.5,Win32,60
,,,,,,,,,,,,right,3.98189,0,180,180,94,1,rotor,KA114,nő,1999,15,2021-05-14_14h51.57.506,ranlexdec,2020.2.5,Win32,60
,,,,,,,,,,,,right,2.78393,0,181,181,144,1,rövid,KA114,nő,1999,15,2021-05-14_14h51.57.506,ranlexdec,2020.2.5,Win32,60
,,,,,,,,,,,,left,3.99822,0,182,182,119,1,cugehőr,KA114,nő,1999,15,2021-05-14_14h51.57.506,ranlexdec,2020.2.5,Win32,60
,,,,,,,,,,,,right,2.10723,0,183,183,189,1,konverzál,KA114,nő,1999,15,2021-05-14_14h51.57.506,ranlexdec,2020.2.5,Win32,60
,,,,,,,,,,,,right,1.459175,0,184,184,43,1,közhely,KA114,nő,1999,15,2021-05-14_14h51.57.506,ranlexdec,2020.2.5,Win32,60
,,,,,,,,,,,,right,1.170265,0,185,185,233,1,templomoz,KA114,nő,1999,15,2021-05-14_14h51.57.506,ranlexdec,2020.2.5,Win32,60
,,,,,,,,,,,,left,1.10004,0,186,186,215,1,neoprén,KA114,nő,1999,15,2021-05-14_14h51.57.506,ranlexdec,2020.2.5,Win32,60
,,,,,,,,,,,,right,1.34943,0,187,187,12,1,gyapot,KA114,nő,1999,15,2021-05-14_14h51.57.506,ranlexdec,2020.2.5,Win32,60
,,,,,,,,,,,,left,3.006575,0,188,188,91,1,tajtásos,KA114,nő,1999,15,2021-05-14_14h51.57.506,ranlexdec,2020.2.5,Win32,60
,,,,,,,,,,,,right,0.900915,0,189,189,25,1,reform,KA114,nő,1999,15,2021-05-14_14h51.57.506,ranlexdec,2020.2.5,Win32,60
,,,,,,,,,,,,right,3.492065,0,190,190,3,1,tömzsa,KA114,nő,1999,15,2021-05-14_14h51.57.506,ranlexdec,2020.2.5,Win32,60
,,,,,,,,,,,,left,1.640055,0,191,191,127,1,rozintem,KA114,nő,1999,15,2021-05-14_14h51.57.506,ranlexdec,2020.2.5,Win32,60
,,,,,,,,,,,,right,1.010265,0,192,192,122,1,égitest,KA114,nő,1999,15,2021-05-14_14h51.57.506,ranlexdec,2020.2.5,Win32,60
,,,,,,,,,,,,left,1.465835,0,193,193,166,1,retálhit,KA114,nő,1999,15,2021-05-14_14h51.57.506,ranlexdec,2020.2.5,Win32,60
,,,,,,,,,,,,left,2.01616,0,194,194,155,1,megpadék,KA114,nő,1999,15,2021-05-14_14h51.57.506,ranlexdec,2020.2.5,Win32,60
,,,,,,,,,,,,right,2.595235,0,195,195,87,1,forrpont,KA114,nő,1999,15,2021-05-14_14h51.57.506,ranlexdec,2020.2.5,Win32,60
,,,,,,,,,,,,left,7.081565,0,196,196,69,1,gerencsér,KA114,nő,1999,15,2021-05-14_14h51.57.506,ranlexdec,2020.2.5,Win32,60
,,,,,,,,,,,,left,2.223665,0,197,197,93,1,kilukát,KA114,nő,1999,15,2021-05-14_14h51.57.506,ranlexdec,2020.2.5,Win32,60
,,,,,,,,,,,,right,1.177685,0,198,198,193,1,bacon,KA114,nő,1999,15,2021-05-14_14h51.57.506,ranlexdec,2020.2.5,Win32,60
,,,,,,,,,,,,right,3.548945,0,199,199,188,1,sugár,KA114,nő,1999,15,2021-05-14_14h51.57.506,ranlexdec,2020.2.5,Win32,60
,,,,,,,,,,,,right,1.17022,0,200,200,123,1,luftballon,KA114,nő,1999,15,2021-05-14_14h51.57.506,ranlexdec,2020.2.5,Win32,60
,,,,,,,,,,,,left,7.572605,0,201,201,142,1,storítő,KA114,nő,1999,15,2021-05-14_14h51.57.506,ranlexdec,2020.2.5,Win32,60
,,,,,,,,,,,,left,1.50111,0,202,202,40,1,diviz,KA114,nő,1999,15,2021-05-14_14h51.57.506,ranlexdec,2020.2.5,Win32,60
,,,,,,,,,,,,right,4.44792,0,203,203,168,1,grafikon,KA114,nő,1999,15,2021-05-14_14h51.57.506,ranlexdec,2020.2.5,Win32,60
,,,,,,,,,,,,right,2.536785,0,204,204,239,1,donhuán,KA114,nő,1999,15,2021-05-14_14h51.57.506,ranlexdec,2020.2.5,Win32,60
,,,,,,,,,,,,right,3.29214,0,205,205,169,1,komoly,KA114,nő,1999,15,2021-05-14_14h51.57.506,ranlexdec,2020.2.5,Win32,60
,,,,,,,,,,,,left,8.697775,0,206,206,76,1,jegedény,KA114,nő,1999,15,2021-05-14_14h51.57.506,ranlexdec,2020.2.5,Win32,60
,,,,,,,,,,,,right,1.74116,0,207,207,148,1,mellényzseb,KA114,nő,1999,15,2021-05-14_14h51.57.506,ranlexdec,2020.2.5,Win32,60
,,,,,,,,,,,,right,0.833835,0,208,208,61,1,régész,KA114,nő,1999,15,2021-05-14_14h51.57.506,ranlexdec,2020.2.5,Win32,60
,,,,,,,,,,,,right,0.62812,0,209,209,80,1,darab,KA114,nő,1999,15,2021-05-14_14h51.57.506,ranlexdec,2020.2.5,Win32,60
,,,,,,,,,,,,right,0.966015,0,210,210,236,1,csatázik,KA114,nő,1999,15,2021-05-14_14h51.57.506,ranlexdec,2020.2.5,Win32,60
,,,,,,,,,,,,left,2.749365,0,211,211,35,1,türemlik,KA114,nő,1999,15,2021-05-14_14h51.57.506,ranlexdec,2020.2.5,Win32,60
,,,,,,,,,,,,right,2.533525,0,212,212,240,1,áradmány,KA114,nő,1999,15,2021-05-14_14h51.57.506,ranlexdec,2020.2.5,Win32,60
,,,,,,,,,,,,right,0.949775,0,213,213,37,1,lukaszt,KA114,nő,1999,15,2021-05-14_14h51.57.506,ranlexdec,2020.2.5,Win32,60
,,,,,,,,,,,,right,2.565985,0,214,214,41,1,nagybeteg,KA114,nő,1999,15,2021-05-14_14h51.57.506,ranlexdec,2020.2.5,Win32,60
,,,,,,,,,,,,left,1.187575,0,215,215,106,1,lalláz,KA114,nő,1999,15,2021-05-14_14h51.57.506,ranlexdec,2020.2.5,Win32,60
,,,,,,,,,,,,right,0.70299,0,216,216,234,1,fertilis,KA114,nő,1999,15,2021-05-14_14h51.57.506,ranlexdec,2020.2.5,Win32,60
,,,,,,,,,,,,left,1.699725,0,217,217,72,1,mihálóz,KA114,nő,1999,15,2021-05-14_14h51.57.506,ranlexdec,2020.2.5,Win32,60
,,,,,,,,,,,,right,1.11668,0,218,218,171,1,újgazdag,KA114,nő,1999,15,2021-05-14_14h51.57.506,ranlexdec,2020.2.5,Win32,60
,,,,,,,,,,,,right,0.667035,0,219,219,126,1,rejtőzik,KA114,nő,1999,15,2021-05-14_14h51.57.506,ranlexdec,2020.2.5,Win32,60
,,,,,,,,,,,,left,5.297915,0,220,220,232,1,tropikus,KA114,nő,1999,15,2021-05-14_14h51.57.506,ranlexdec,2020.2.5,Win32,60
,,,,,,,,,,,,right,2.567555,0,221,221,132,1,hatalom,KA114,nő,1999,15,2021-05-14_14h51.57.506,ranlexdec,2020.2.5,Win32,60
,,,,,,,,,,,,right,0.825565,0,222,222,6,1,csüggeszt,KA114,nő,1999,15,2021-05-14_14h51.57.506,ranlexdec,2020.2.5,Win32,60
,,,,,,,,,,,,left,1.98611,0,223,223,60,1,bárányfark,KA114,nő,1999,15,2021-05-14_14h51.57.506,ranlexdec,2020.2.5,Win32,60
,,,,,,,,,,,,right,0.96649,0,224,224,32,1,genom,KA114,nő,1999,15,2021-05-14_14h51.57.506,ranlexdec,2020.2.5,Win32,60
,,,,,,,,,,,,left,2.889245,0,225,225,83,1,vonzum,KA114,nő,1999,15,2021-05-14_14h51.57.506,ranlexdec,2020.2.5,Win32,60
,,,,,,,,,,,,left,4.78754,0,226,226,103,1,szabotró,KA114,nő,1999,15,2021-05-14_14h51.57.506,ranlexdec,2020.2.5,Win32,60
,,,,,,,,,,,,right,1.39276,0,227,227,175,1,szilikát,KA114,nő,1999,15,2021-05-14_14h51.57.506,ranlexdec,2020.2.5,Win32,60
,,,,,,,,,,,,left,2.17314,0,228,228,141,1,hider,KA114,nő,1999,15,2021-05-14_14h51.57.506,ranlexdec,2020.2.5,Win32,60
,,,,,,,,,,,,left,1.31196,0,229,229,203,1,abeti,KA114,nő,1999,15,2021-05-14_14h51.57.506,ranlexdec,2020.2.5,Win32,60
,,,,,,,,,,,,right,0.83353,0,230,230,163,1,kollapszus,KA114,nő,1999,15,2021-05-14_14h51.57.506,ranlexdec,2020.2.5,Win32,60
,,,,,,,,,,,,left,3.332265,0,231,231,81,1,takorák,KA114,nő,1999,15,2021-05-14_14h51.57.506,ranlexdec,2020.2.5,Win32,60
,,,,,,,,,,,,right,1.43455,0,232,232,238,1,bolgár,KA114,nő,1999,15,2021-05-14_14h51.57.506,ranlexdec,2020.2.5,Win32,60
,,,,,,,,,,,,left,2.316235,0,233,233,230,1,délceg,KA114,nő,1999,15,2021-05-14_14h51.57.506,ranlexdec,2020.2.5,Win32,60
,,,,,,,,,,,,right,1.39233,0,234,234,165,1,lépték,KA114,nő,1999,15,2021-05-14_14h51.57.506,ranlexdec,2020.2.5,Win32,60
,,,,,,,,,,,,left,1.240065,0,235,235,223,1,árstop,KA114,nő,1999,15,2021-05-14_14h51.57.506,ranlexdec,2020.2.5,Win32,60
,,,,,,,,,,,,left,2.03786,0,236,236,167,1,vabank,KA114,nő,1999,15,2021-05-14_14h51.57.506,ranlexdec,2020.2.5,Win32,60
,,,,,,,,,,,,left,1.3371,0,237,237,102,1,pentez,KA114,nő,1999,15,2021-05-14_14h51.57.506,ranlexdec,2020.2.5,Win32,60
,,,,,,,,,,,,right,0.67057,0,238,238,114,1,tartalom,KA114,nő,1999,15,2021-05-14_14h51.57.506,ranlexdec,2020.2.5,Win32,60
,,,,,,,,,,,,left,2.060315,0,239,239,125,1,úszamos,KA114,nő,1999,15,2021-05-14_14h51.57.506,ranlexdec,2020.2.5,Win32,60
,,,,,,,,,,,,right,1.05215,0,240,240,105,1,tököl,KA114,nő,1999,15,2021-05-14_14h51.57.506,ranlexdec,2020.2.5,Win32,60
,,,,,,,,,,,,left,1.03637,0,241,241,52,1,kunyai,KA114,nő,1999,15,2021-05-14_14h51.57.506,ranlexdec,2020.2.5,Win32,60
,,,,,,,,,,,,left,1.234585,0,242,242,225,1,bajadér,KA114,nő,1999,15,2021-05-14_14h51.57.506,ranlexdec,2020.2.5,Win32,60
,,,,,,,,,,,,right,3.610695,0,243,243,160,1,százalék,KA114,nő,1999,15,2021-05-14_14h51.57.506,ranlexdec,2020.2.5,Win32,60
,,,,,,,,,,,,left,3.76078,0,244,244,181,1,dohorpák,KA114,nő,1999,15,2021-05-14_14h51.57.506,ranlexdec,2020.2.5,Win32,60
,,,,,,,,,,,,right,0.791485,0,245,245,185,1,gyülemlik,KA114,nő,1999,15,2021-05-14_14h51.57.506,ranlexdec,2020.2.5,Win32,60
,,,,,,,,,,,,left,1.54595,0,246,246,66,1,parkkói,KA114,nő,1999,15,2021-05-14_14h51.57.506,ranlexdec,2020.2.5,Win32,60
,,,,,,,,,,,,left,0.76145,0,247,247,195,1,petél,KA114,nő,1999,15,2021-05-14_14h51.57.506,ranlexdec,2020.2.5,Win32,60
,,,,,,,,,,,,left,0.866355,0,248,248,150,1,orront,KA114,nő,1999,15,2021-05-14_14h51.57.506,ranlexdec,2020.2.5,Win32,60
,,,,,,,,,,,,left,2.13306,0,249,249,38,1,zomogyi,KA114,nő,1999,15,2021-05-14_14h51.57.506,ranlexdec,2020.2.5,Win32,60
