ready2_2.keys,ready2_2.rt,ready2.keys,ready2.rt,key_resp.keys,key_resp.rt,key_resp_3.keys,key_resp_3.rt,key_resp_2.keys,key_resp_2.rt,ready3.keys,ready3.rt,resp.keys,resp.rt,withinBlock.thisRepN,withinBlock.thisTrialN,withinBlock.thisN,withinBlock.thisIndex,withinBlock.ran,word,Azonosító,Az Ön neme,Születési éve,Hány évet töltött az iskolapadban (egyetemet is beleértve),date,expName,psychopyVersion,OS,frameRate
space,28.006025,right,9.66392,right,1.26732,left,7.615995,left,2.077395,space,16.419005,left,1.49389,0,0,0,137,1,aragas,KA101,nő,2000.,13,2021-05-12_23h41.32.247,ranlexdec,2020.2.5,Win32,60
,,,,,,,,,,,,right,1.031535,0,1,1,202,1,abszint,KA101,nő,2000.,13,2021-05-12_23h41.32.247,ranlexdec,2020.2.5,Win32,60
,,,,,,,,,,,,right,1.51314,0,2,2,148,1,mellényzseb,KA101,nő,2000.,13,2021-05-12_23h41.32.247,ranlexdec,2020.2.5,Win32,60
,,,,,,,,,,,,left,1.133245,0,3,3,142,1,storítő,KA101,nő,2000.,13,2021-05-12_23h41.32.247,ranlexdec,2020.2.5,Win32,60
,,,,,,,,,,,,right,0.93913,0,4,4,188,1,sugár,KA101,nő,2000.,13,2021-05-12_23h41.32.247,ranlexdec,2020.2.5,Win32,60
,,,,,,,,,,,,left,1.242685,0,5,5,63,1,viszkózus,KA101,nő,2000.,13,2021-05-12_23h41.32.247,ranlexdec,2020.2.5,Win32,60
,,,,,,,,,,,,left,0.979925,0,6,6,49,1,ernyak,KA101,nő,2000.,13,2021-05-12_23h41.32.247,ranlexdec,2020.2.5,Win32,60
,,,,,,,,,,,,left,2.03515,0,7,7,125,1,úszamos,KA101,nő,2000.,13,2021-05-12_23h41.32.247,ranlexdec,2020.2.5,Win32,60
,,,,,,,,,,,,left,2.03935,0,8,8,128,1,csüggedez,KA101,nő,2000.,13,2021-05-12_23h41.32.247,ranlexdec,2020.2.5,Win32,60
,,,,,,,,,,,,left,1.56298,0,9,9,11,1,viszkóz,KA101,nő,2000.,13,2021-05-12_23h41.32.247,ranlexdec,2020.2.5,Win32,60
,,,,,,,,,,,,right,0.70486,0,10,10,55,1,látszik,KA101,nő,2000.,13,2021-05-12_23h41.32.247,ranlexdec,2020.2.5,Win32,60
,,,,,,,,,,,,right,0.883885,0,11,11,130,1,derít,KA101,nő,2000.,13,2021-05-12_23h41.32.247,ranlexdec,2020.2.5,Win32,60
,,,,,,,,,,,,left,1.915825,0,12,12,243,1,dipeptid,KA101,nő,2000.,13,2021-05-12_23h41.32.247,ranlexdec,2020.2.5,Win32,60
,,,,,,,,,,,,right,1.36235,0,13,13,184,1,profit,KA101,nő,2000.,13,2021-05-12_23h41.32.247,ranlexdec,2020.2.5,Win32,60
,,,,,,,,,,,,left,1.223735,0,14,14,204,1,kocskesi,KA101,nő,2000.,13,2021-05-12_23h41.32.247,ranlexdec,2020.2.5,Win32,60
,,,,,,,,,,,,left,1.099565,0,15,15,156,1,lazúroz,KA101,nő,2000.,13,2021-05-12_23h41.32.247,ranlexdec,2020.2.5,Win32,60
,,,,,,,,,,,,right,1.095275,0,16,16,37,1,lukaszt,KA101,nő,2000.,13,2021-05-12_23h41.32.247,ranlexdec,2020.2.5,Win32,60
,,,,,,,,,,,,left,1.07915,0,17,17,174,1,cianid,KA101,nő,2000.,13,2021-05-12_23h41.32.247,ranlexdec,2020.2.5,Win32,60
,,,,,,,,,,,,right,1.046075,0,18,18,6,1,csüggeszt,KA101,nő,2000.,13,2021-05-12_23h41.32.247,ranlexdec,2020.2.5,Win32,60
,,,,,,,,,,,,right,1.14395,0,19,19,187,1,testnedv,KA101,nő,2000.,13,2021-05-12_23h41.32.247,ranlexdec,2020.2.5,Win32,60
,,,,,,,,,,,,left,1.095565,0,20,20,76,1,jegedény,KA101,nő,2000.,13,2021-05-12_23h41.32.247,ranlexdec,2020.2.5,Win32,60
,,,,,,,,,,,,right,1.01875,0,21,21,64,1,hálózsák,KA101,nő,2000.,13,2021-05-12_23h41.32.247,ranlexdec,2020.2.5,Win32,60
,,,,,,,,,,,,left,1.72375,0,22,22,191,1,hitódó,KA101,nő,2000.,13,2021-05-12_23h41.32.247,ranlexdec,2020.2.5,Win32,60
,,,,,,,,,,,,left,1.29897,0,23,23,134,1,móringol,KA101,nő,2000.,13,2021-05-12_23h41.32.247,ranlexdec,2020.2.5,Win32,60
,,,,,,,,,,,,right,0.713565,0,24,24,169,1,komoly,KA101,nő,2000.,13,2021-05-12_23h41.32.247,ranlexdec,2020.2.5,Win32,60
,,,,,,,,,,,,right,0.974075,0,25,25,1,1,csapdáz,KA101,nő,2000.,13,2021-05-12_23h41.32.247,ranlexdec,2020.2.5,Win32,60
,,,,,,,,,,,,left,5.306545,0,26,26,203,1,abeti,KA101,nő,2000.,13,2021-05-12_23h41.32.247,ranlexdec,2020.2.5,Win32,60
,,,,,,,,,,,,left,1.379565,0,27,27,102,1,pentez,KA101,nő,2000.,13,2021-05-12_23h41.32.247,ranlexdec,2020.2.5,Win32,60
,,,,,,,,,,,,right,1.15617,0,28,28,43,1,közhely,KA101,nő,2000.,13,2021-05-12_23h41.32.247,ranlexdec,2020.2.5,Win32,60
,,,,,,,,,,,,right,1.204715,0,29,29,179,1,töredék,KA101,nő,2000.,13,2021-05-12_23h41.32.247,ranlexdec,2020.2.5,Win32,60
,,,,,,,,,,,,left,1.337095,0,30,30,74,1,püffeszt,KA101,nő,2000.,13,2021-05-12_23h41.32.247,ranlexdec,2020.2.5,Win32,60
,,,,,,,,,,,,left,1.181995,0,31,31,40,1,diviz,KA101,nő,2000.,13,2021-05-12_23h41.32.247,ranlexdec,2020.2.5,Win32,60
,,,,,,,,,,,,right,1.114335,0,32,32,160,1,százalék,KA101,nő,2000.,13,2021-05-12_23h41.32.247,ranlexdec,2020.2.5,Win32,60
,,,,,,,,,,,,left,1.29575,0,33,33,97,1,vésségi,KA101,nő,2000.,13,2021-05-12_23h41.32.247,ranlexdec,2020.2.5,Win32,60
,,,,,,,,,,,,right,0.83499,0,34,34,86,1,jármű,KA101,nő,2000.,13,2021-05-12_23h41.32.247,ranlexdec,2020.2.5,Win32,60
,,,,,,,,,,,,right,1.32922,0,35,35,237,1,forgórész,KA101,nő,2000.,13,2021-05-12_23h41.32.247,ranlexdec,2020.2.5,Win32,60
,,,,,,,,,,,,right,1.301385,0,36,36,100,1,balközép,KA101,nő,2000.,13,2021-05-12_23h41.32.247,ranlexdec,2020.2.5,Win32,60
,,,,,,,,,,,,right,1.156675,0,37,37,53,1,puritán,KA101,nő,2000.,13,2021-05-12_23h41.32.247,ranlexdec,2020.2.5,Win32,60
,,,,,,,,,,,,right,1.166115,0,38,38,193,1,bacon,KA101,nő,2000.,13,2021-05-12_23h41.32.247,ranlexdec,2020.2.5,Win32,60
,,,,,,,,,,,,right,1.068645,0,39,39,201,1,szempont,KA101,nő,2000.,13,2021-05-12_23h41.32.247,ranlexdec,2020.2.5,Win32,60
,,,,,,,,,,,,right,1.171615,0,40,40,12,1,gyapot,KA101,nő,2000.,13,2021-05-12_23h41.32.247,ranlexdec,2020.2.5,Win32,60
,,,,,,,,,,,,right,1.03162,0,41,41,228,1,tarol,KA101,nő,2000.,13,2021-05-12_23h41.32.247,ranlexdec,2020.2.5,Win32,60
,,,,,,,,,,,,right,1.25675,0,42,42,27,1,sporthorgász,KA101,nő,2000.,13,2021-05-12_23h41.32.247,ranlexdec,2020.2.5,Win32,60
,,,,,,,,,,,,right,1.16447,0,43,43,9,1,hajlik,KA101,nő,2000.,13,2021-05-12_23h41.32.247,ranlexdec,2020.2.5,Win32,60
,,,,,,,,,,,,right,1.396365,0,44,44,23,1,szelégül,KA101,nő,2000.,13,2021-05-12_23h41.32.247,ranlexdec,2020.2.5,Win32,60
,,,,,,,,,,,,left,1.767135,0,45,45,224,1,truccol,KA101,nő,2000.,13,2021-05-12_23h41.32.247,ranlexdec,2020.2.5,Win32,60
,,,,,,,,,,,,left,0.87551,0,46,46,29,1,novagár,KA101,nő,2000.,13,2021-05-12_23h41.32.247,ranlexdec,2020.2.5,Win32,60
,,,,,,,,,,,,right,1.26329,0,47,47,230,1,délceg,KA101,nő,2000.,13,2021-05-12_23h41.32.247,ranlexdec,2020.2.5,Win32,60
,,,,,,,,,,,,left,2.1994,0,48,48,42,1,összalaj,KA101,nő,2000.,13,2021-05-12_23h41.32.247,ranlexdec,2020.2.5,Win32,60
,,,,,,,,,,,,right,0.73388,0,49,49,73,1,olaj,KA101,nő,2000.,13,2021-05-12_23h41.32.247,ranlexdec,2020.2.5,Win32,60
,,,,,,,,,,,,left,1.63705,0,50,50,47,1,döföl,KA101,nő,2000.,13,2021-05-12_23h41.32.247,ranlexdec,2020.2.5,Win32,60
,,,,,,,,,,,,right,0.863345,0,51,51,170,1,változik,KA101,nő,2000.,13,2021-05-12_23h41.32.247,ranlexdec,2020.2.5,Win32,60
,,,,,,,,,,,,left,1.12438,0,52,52,190,1,rámáz,KA101,nő,2000.,13,2021-05-12_23h41.32.247,ranlexdec,2020.2.5,Win32,60
,,,,,,,,,,,,right,1.30526,0,53,53,171,1,újgazdag,KA101,nő,2000.,13,2021-05-12_23h41.32.247,ranlexdec,2020.2.5,Win32,60
,,,,,,,,,,,,right,1.145865,0,54,54,54,1,fürkész,KA101,nő,2000.,13,2021-05-12_23h41.32.247,ranlexdec,2020.2.5,Win32,60
,,,,,,,,,,,,right,1.91529,0,55,55,60,1,bárányfark,KA101,nő,2000.,13,2021-05-12_23h41.32.247,ranlexdec,2020.2.5,Win32,60
,,,,,,,,,,,,right,1.768225,0,56,56,233,1,templomoz,KA101,nő,2000.,13,2021-05-12_23h41.32.247,ranlexdec,2020.2.5,Win32,60
,,,,,,,,,,,,left,1.23946,0,57,57,195,1,petél,KA101,nő,2000.,13,2021-05-12_23h41.32.247,ranlexdec,2020.2.5,Win32,60
,,,,,,,,,,,,left,2.045445,0,58,58,84,1,kúpol,KA101,nő,2000.,13,2021-05-12_23h41.32.247,ranlexdec,2020.2.5,Win32,60
,,,,,,,,,,,,right,0.801415,0,59,59,126,1,rejtőzik,KA101,nő,2000.,13,2021-05-12_23h41.32.247,ranlexdec,2020.2.5,Win32,60
,,,,,,,,,,,,left,1.182515,0,60,60,52,1,kunyai,KA101,nő,2000.,13,2021-05-12_23h41.32.247,ranlexdec,2020.2.5,Win32,60
,,,,,,,,,,,,left,0.953915,0,61,61,215,1,neoprén,KA101,nő,2000.,13,2021-05-12_23h41.32.247,ranlexdec,2020.2.5,Win32,60
,,,,,,,,,,,,right,0.72341,0,62,62,247,1,ausztrál,KA101,nő,2000.,13,2021-05-12_23h41.32.247,ranlexdec,2020.2.5,Win32,60
,,,,,,,,,,,,right,0.707315,0,63,63,114,1,tartalom,KA101,nő,2000.,13,2021-05-12_23h41.32.247,ranlexdec,2020.2.5,Win32,60
,,,,,,,,,,,,left,1.514195,0,64,64,163,1,kollapszus,KA101,nő,2000.,13,2021-05-12_23h41.32.247,ranlexdec,2020.2.5,Win32,60
,,,,,,,,,,,,right,1.055435,0,65,65,149,1,anorák,KA101,nő,2000.,13,2021-05-12_23h41.32.247,ranlexdec,2020.2.5,Win32,60
,,,,,,,,,,,,left,1.135565,0,66,66,75,1,karnogó,KA101,nő,2000.,13,2021-05-12_23h41.32.247,ranlexdec,2020.2.5,Win32,60
,,,,,,,,,,,,right,1.32958,0,67,67,249,1,kencéz,KA101,nő,2000.,13,2021-05-12_23h41.32.247,ranlexdec,2020.2.5,Win32,60
,,,,,,,,,,,,right,0.86463,0,68,68,45,1,népszerű,KA101,nő,2000.,13,2021-05-12_23h41.32.247,ranlexdec,2020.2.5,Win32,60
,,,,,,,,,,,,left,1.912675,0,69,69,131,1,vetézmés,KA101,nő,2000.,13,2021-05-12_23h41.32.247,ranlexdec,2020.2.5,Win32,60
,,,,,,,,,,,,right,0.81254,0,70,70,79,1,extrém,KA101,nő,2000.,13,2021-05-12_23h41.32.247,ranlexdec,2020.2.5,Win32,60
,,,,,,,,,,,,right,0.79611,0,71,71,78,1,törékeny,KA101,nő,2000.,13,2021-05-12_23h41.32.247,ranlexdec,2020.2.5,Win32,60
,,,,,,,,,,,,right,1.907035,0,72,72,152,1,rakódik,KA101,nő,2000.,13,2021-05-12_23h41.32.247,ranlexdec,2020.2.5,Win32,60
,,,,,,,,,,,,right,0.73551,0,73,73,132,1,hatalom,KA101,nő,2000.,13,2021-05-12_23h41.32.247,ranlexdec,2020.2.5,Win32,60
,,,,,,,,,,,,left,2.407655,0,74,74,69,1,gerencsér,KA101,nő,2000.,13,2021-05-12_23h41.32.247,ranlexdec,2020.2.5,Win32,60
,,,,,,,,,,,,left,0.7478,0,75,75,162,1,nimbus,KA101,nő,2000.,13,2021-05-12_23h41.32.247,ranlexdec,2020.2.5,Win32,60
,,,,,,,,,,,,left,0.95427,0,76,76,16,1,cséltás,KA101,nő,2000.,13,2021-05-12_23h41.32.247,ranlexdec,2020.2.5,Win32,60
,,,,,,,,,,,,right,0.61747,0,77,77,67,1,szegény,KA101,nő,2000.,13,2021-05-12_23h41.32.247,ranlexdec,2020.2.5,Win32,60
,,,,,,,,,,,,left,0.98303,0,78,78,117,1,ószeven,KA101,nő,2000.,13,2021-05-12_23h41.32.247,ranlexdec,2020.2.5,Win32,60
,,,,,,,,,,,,left,0.923295,0,79,79,145,1,kurtít,KA101,nő,2000.,13,2021-05-12_23h41.32.247,ranlexdec,2020.2.5,Win32,60
,,,,,,,,,,,,left,0.957515,0,80,80,103,1,szabotró,KA101,nő,2000.,13,2021-05-12_23h41.32.247,ranlexdec,2020.2.5,Win32,60
,,,,,,,,,,,,left,0.813585,0,81,81,24,1,kosi,KA101,nő,2000.,13,2021-05-12_23h41.32.247,ranlexdec,2020.2.5,Win32,60
,,,,,,,,,,,,left,1.151595,0,82,82,91,1,tajtásos,KA101,nő,2000.,13,2021-05-12_23h41.32.247,ranlexdec,2020.2.5,Win32,60
,,,,,,,,,,,,left,1.03939,0,83,83,192,1,norvend,KA101,nő,2000.,13,2021-05-12_23h41.32.247,ranlexdec,2020.2.5,Win32,60
,,,,,,,,,,,,left,0.92947,0,84,84,36,1,tröshet,KA101,nő,2000.,13,2021-05-12_23h41.32.247,ranlexdec,2020.2.5,Win32,60
,,,,,,,,,,,,right,0.81452,0,85,85,33,1,kalcium,KA101,nő,2000.,13,2021-05-12_23h41.32.247,ranlexdec,2020.2.5,Win32,60
,,,,,,,,,,,,left,0.891485,0,86,86,106,1,lalláz,KA101,nő,2000.,13,2021-05-12_23h41.32.247,ranlexdec,2020.2.5,Win32,60
,,,,,,,,,,,,right,1.33582,0,87,87,7,1,űrlap,KA101,nő,2000.,13,2021-05-12_23h41.32.247,ranlexdec,2020.2.5,Win32,60
,,,,,,,,,,,,right,0.81306,0,88,88,59,1,ómagyar,KA101,nő,2000.,13,2021-05-12_23h41.32.247,ranlexdec,2020.2.5,Win32,60
,,,,,,,,,,,,left,0.823335,0,89,89,181,1,dohorpák,KA101,nő,2000.,13,2021-05-12_23h41.32.247,ranlexdec,2020.2.5,Win32,60
,,,,,,,,,,,,left,0.867485,0,90,90,15,1,pauzál,KA101,nő,2000.,13,2021-05-12_23h41.32.247,ranlexdec,2020.2.5,Win32,60
,,,,,,,,,,,,left,0.89713,0,91,91,109,1,vényegő,KA101,nő,2000.,13,2021-05-12_23h41.32.247,ranlexdec,2020.2.5,Win32,60
,,,,,,,,,,,,left,0.873345,0,92,92,82,1,kvéker,KA101,nő,2000.,13,2021-05-12_23h41.32.247,ranlexdec,2020.2.5,Win32,60
,,,,,,,,,,,,right,0.732675,0,93,93,124,1,alkalom,KA101,nő,2000.,13,2021-05-12_23h41.32.247,ranlexdec,2020.2.5,Win32,60
,,,,,,,,,,,,right,1.09723,0,94,94,212,1,farkasbab,KA101,nő,2000.,13,2021-05-12_23h41.32.247,ranlexdec,2020.2.5,Win32,60
,,,,,,,,,,,,right,1.412835,0,95,95,22,1,arzénsav,KA101,nő,2000.,13,2021-05-12_23h41.32.247,ranlexdec,2020.2.5,Win32,60
,,,,,,,,,,,,left,1.23355,0,96,96,65,1,infimum,KA101,nő,2000.,13,2021-05-12_23h41.32.247,ranlexdec,2020.2.5,Win32,60
,,,,,,,,,,,,right,0.59679,0,97,97,110,1,időszak,KA101,nő,2000.,13,2021-05-12_23h41.32.247,ranlexdec,2020.2.5,Win32,60
,,,,,,,,,,,,left,0.773175,0,98,98,30,1,dádá,KA101,nő,2000.,13,2021-05-12_23h41.32.247,ranlexdec,2020.2.5,Win32,60
,,,,,,,,,,,,left,1.262495,0,99,99,155,1,megpadék,KA101,nő,2000.,13,2021-05-12_23h41.32.247,ranlexdec,2020.2.5,Win32,60
,,,,,,,,,,,,right,1.07133,0,100,100,14,1,selypít,KA101,nő,2000.,13,2021-05-12_23h41.32.247,ranlexdec,2020.2.5,Win32,60
,,,,,,,,,,,,left,1.184045,0,101,101,139,1,vároló,KA101,nő,2000.,13,2021-05-12_23h41.32.247,ranlexdec,2020.2.5,Win32,60
,,,,,,,,,,,,right,0.63324,0,102,102,214,1,tenger,KA101,nő,2000.,13,2021-05-12_23h41.32.247,ranlexdec,2020.2.5,Win32,60
,,,,,,,,,,,,right,0.87275,0,103,103,87,1,forrpont,KA101,nő,2000.,13,2021-05-12_23h41.32.247,ranlexdec,2020.2.5,Win32,60
,,,,,,,,,,,,right,1.07064,0,104,104,211,1,tábornagy,KA101,nő,2000.,13,2021-05-12_23h41.32.247,ranlexdec,2020.2.5,Win32,60
,,,,,,,,,,,,left,0.885155,0,105,105,143,1,rojtoz,KA101,nő,2000.,13,2021-05-12_23h41.32.247,ranlexdec,2020.2.5,Win32,60
,,,,,,,,,,,,right,1.03311,0,106,106,236,1,csatázik,KA101,nő,2000.,13,2021-05-12_23h41.32.247,ranlexdec,2020.2.5,Win32,60
,,,,,,,,,,,,left,1.112645,0,107,107,35,1,türemlik,KA101,nő,2000.,13,2021-05-12_23h41.32.247,ranlexdec,2020.2.5,Win32,60
,,,,,,,,,,,,left,0.979335,0,108,108,95,1,skubizik,KA101,nő,2000.,13,2021-05-12_23h41.32.247,ranlexdec,2020.2.5,Win32,60
,,,,,,,,,,,,right,1.38943,0,109,109,216,1,svábtök,KA101,nő,2000.,13,2021-05-12_23h41.32.247,ranlexdec,2020.2.5,Win32,60
,,,,,,,,,,,,left,1.35396,0,110,110,218,1,tortya,KA101,nő,2000.,13,2021-05-12_23h41.32.247,ranlexdec,2020.2.5,Win32,60
,,,,,,,,,,,,left,1.613775,0,111,111,164,1,kurzivál,KA101,nő,2000.,13,2021-05-12_23h41.32.247,ranlexdec,2020.2.5,Win32,60
,,,,,,,,,,,,left,0.88256,0,112,112,223,1,árstop,KA101,nő,2000.,13,2021-05-12_23h41.32.247,ranlexdec,2020.2.5,Win32,60
,,,,,,,,,,,,left,1.26663,0,113,113,207,1,diffamál,KA101,nő,2000.,13,2021-05-12_23h41.32.247,ranlexdec,2020.2.5,Win32,60
,,,,,,,,,,,,right,0.902275,0,114,114,8,1,kulcscsont,KA101,nő,2000.,13,2021-05-12_23h41.32.247,ranlexdec,2020.2.5,Win32,60
,,,,,,,,,,,,left,1.205815,0,115,115,72,1,mihálóz,KA101,nő,2000.,13,2021-05-12_23h41.32.247,ranlexdec,2020.2.5,Win32,60
,,,,,,,,,,,,left,1.008885,0,116,116,107,1,kelől,KA101,nő,2000.,13,2021-05-12_23h41.32.247,ranlexdec,2020.2.5,Win32,60
,,,,,,,,,,,,right,0.687985,0,117,117,194,1,végbél,KA101,nő,2000.,13,2021-05-12_23h41.32.247,ranlexdec,2020.2.5,Win32,60
,,,,,,,,,,,,right,0.666115,0,118,118,209,1,hidegház,KA101,nő,2000.,13,2021-05-12_23h41.32.247,ranlexdec,2020.2.5,Win32,60
,,,,,,,,,,,,left,1.46894,0,119,119,219,1,szimboló,KA101,nő,2000.,13,2021-05-12_23h41.32.247,ranlexdec,2020.2.5,Win32,60
,,,,,,,,,,,,right,1.002695,0,120,120,56,1,kanalaz,KA101,nő,2000.,13,2021-05-12_23h41.32.247,ranlexdec,2020.2.5,Win32,60
,,,,,,,,,,,,right,0.878715,0,121,121,25,1,reform,KA101,nő,2000.,13,2021-05-12_23h41.32.247,ranlexdec,2020.2.5,Win32,60
,,,,,,,,,,,,left,1.199005,0,122,122,46,1,kurzív,KA101,nő,2000.,13,2021-05-12_23h41.32.247,ranlexdec,2020.2.5,Win32,60
,,,,,,,,,,,,right,0.779775,0,123,123,165,1,lépték,KA101,nő,2000.,13,2021-05-12_23h41.32.247,ranlexdec,2020.2.5,Win32,60
,,,,,,,,,,,,right,0.98164,0,124,124,34,1,csengettyű,KA101,nő,2000.,13,2021-05-12_23h41.32.247,ranlexdec,2020.2.5,Win32,60
,,,,,,,,,,,,right,0.834285,0,125,125,231,1,igény,KA101,nő,2000.,13,2021-05-12_23h41.32.247,ranlexdec,2020.2.5,Win32,60
,,,,,,,,,,,,right,0.818245,0,126,126,98,1,mítosz,KA101,nő,2000.,13,2021-05-12_23h41.32.247,ranlexdec,2020.2.5,Win32,60
,,,,,,,,,,,,left,0.96591,0,127,127,112,1,méhezter,KA101,nő,2000.,13,2021-05-12_23h41.32.247,ranlexdec,2020.2.5,Win32,60
,,,,,,,,,,,,right,0.81399,0,128,128,104,1,dolog,KA101,nő,2000.,13,2021-05-12_23h41.32.247,ranlexdec,2020.2.5,Win32,60
,,,,,,,,,,,,left,0.95047,0,129,129,4,1,viszonvád,KA101,nő,2000.,13,2021-05-12_23h41.32.247,ranlexdec,2020.2.5,Win32,60
,,,,,,,,,,,,right,1.07085,0,130,130,189,1,konverzál,KA101,nő,2000.,13,2021-05-12_23h41.32.247,ranlexdec,2020.2.5,Win32,60
,,,,,,,,,,,,right,0.817825,0,131,131,58,1,barát,KA101,nő,2000.,13,2021-05-12_23h41.32.247,ranlexdec,2020.2.5,Win32,60
,,,,,,,,,,,,right,1.075005,0,132,132,238,1,bolgár,KA101,nő,2000.,13,2021-05-12_23h41.32.247,ranlexdec,2020.2.5,Win32,60
,,,,,,,,,,,,left,0.84113,0,133,133,5,1,retta,KA101,nő,2000.,13,2021-05-12_23h41.32.247,ranlexdec,2020.2.5,Win32,60
,,,,,,,,,,,,right,1.422255,0,134,134,99,1,sárgaréz,KA101,nő,2000.,13,2021-05-12_23h41.32.247,ranlexdec,2020.2.5,Win32,60
,,,,,,,,,,,,right,0.711895,0,135,135,138,1,gyűjtemény,KA101,nő,2000.,13,2021-05-12_23h41.32.247,ranlexdec,2020.2.5,Win32,60
,,,,,,,,,,,,right,0.665375,0,136,136,154,1,keresztény,KA101,nő,2000.,13,2021-05-12_23h41.32.247,ranlexdec,2020.2.5,Win32,60
,,,,,,,,,,,,right,0.599175,0,137,137,196,1,dolgozik,KA101,nő,2000.,13,2021-05-12_23h41.32.247,ranlexdec,2020.2.5,Win32,60
,,,,,,,,,,,,right,0.849355,0,138,138,245,1,ellenfél,KA101,nő,2000.,13,2021-05-12_23h41.32.247,ranlexdec,2020.2.5,Win32,60
,,,,,,,,,,,,left,1.808285,0,139,139,96,1,alfél,KA101,nő,2000.,13,2021-05-12_23h41.32.247,ranlexdec,2020.2.5,Win32,60
,,,,,,,,,,,,right,0.886065,0,140,140,18,1,csapattest,KA101,nő,2000.,13,2021-05-12_23h41.32.247,ranlexdec,2020.2.5,Win32,60
,,,,,,,,,,,,left,0.898635,0,141,141,119,1,cugehőr,KA101,nő,2000.,13,2021-05-12_23h41.32.247,ranlexdec,2020.2.5,Win32,60
,,,,,,,,,,,,right,0.697485,0,142,142,151,1,komplex,KA101,nő,2000.,13,2021-05-12_23h41.32.247,ranlexdec,2020.2.5,Win32,60
,,,,,,,,,,,,right,1.349285,0,143,143,176,1,bélyeg,KA101,nő,2000.,13,2021-05-12_23h41.32.247,ranlexdec,2020.2.5,Win32,60
,,,,,,,,,,,,left,0.948425,0,144,144,3,1,tömzsa,KA101,nő,2000.,13,2021-05-12_23h41.32.247,ranlexdec,2020.2.5,Win32,60
,,,,,,,,,,,,right,0.800095,0,145,145,213,1,eszköz,KA101,nő,2000.,13,2021-05-12_23h41.32.247,ranlexdec,2020.2.5,Win32,60
,,,,,,,,,,,,right,0.935345,0,146,146,168,1,grafikon,KA101,nő,2000.,13,2021-05-12_23h41.32.247,ranlexdec,2020.2.5,Win32,60
,,,,,,,,,,,,left,0.714675,0,147,147,111,1,koenzim,KA101,nő,2000.,13,2021-05-12_23h41.32.247,ranlexdec,2020.2.5,Win32,60
,,,,,,,,,,,,right,0.796555,0,148,148,172,1,kettősfém,KA101,nő,2000.,13,2021-05-12_23h41.32.247,ranlexdec,2020.2.5,Win32,60
,,,,,,,,,,,,right,1.232615,0,149,149,113,1,piktogram,KA101,nő,2000.,13,2021-05-12_23h41.32.247,ranlexdec,2020.2.5,Win32,60
,,,,,,,,,,,,right,0.69624,0,150,150,244,1,kislány,KA101,nő,2000.,13,2021-05-12_23h41.32.247,ranlexdec,2020.2.5,Win32,60
,,,,,,,,,,,,right,0.597185,0,151,151,248,1,örmény,KA101,nő,2000.,13,2021-05-12_23h41.32.247,ranlexdec,2020.2.5,Win32,60
,,,,,,,,,,,,left,0.88589,0,152,152,225,1,bajadér,KA101,nő,2000.,13,2021-05-12_23h41.32.247,ranlexdec,2020.2.5,Win32,60
,,,,,,,,,,,,left,0.836175,0,153,153,180,1,adszorbens,KA101,nő,2000.,13,2021-05-12_23h41.32.247,ranlexdec,2020.2.5,Win32,60
,,,,,,,,,,,,left,1.05059,0,154,154,198,1,lublika,KA101,nő,2000.,13,2021-05-12_23h41.32.247,ranlexdec,2020.2.5,Win32,60
,,,,,,,,,,,,right,0.650295,0,155,155,150,1,orront,KA101,nő,2000.,13,2021-05-12_23h41.32.247,ranlexdec,2020.2.5,Win32,60
,,,,,,,,,,,,right,1.11333,0,156,156,129,1,turné,KA101,nő,2000.,13,2021-05-12_23h41.32.247,ranlexdec,2020.2.5,Win32,60
,,,,,,,,,,,,right,1.026445,0,157,157,199,1,ború,KA101,nő,2000.,13,2021-05-12_23h41.32.247,ranlexdec,2020.2.5,Win32,60
,,,,,,,,,,,,left,1.089135,0,158,158,234,1,fertilis,KA101,nő,2000.,13,2021-05-12_23h41.32.247,ranlexdec,2020.2.5,Win32,60
,,,,,,,,,,,,right,1.18574,0,159,159,85,1,glükóz,KA101,nő,2000.,13,2021-05-12_23h41.32.247,ranlexdec,2020.2.5,Win32,60
,,,,,,,,,,,,right,0.75205,0,160,160,208,1,lélek,KA101,nő,2000.,13,2021-05-12_23h41.32.247,ranlexdec,2020.2.5,Win32,60
,,,,,,,,,,,,right,0.79878,0,161,161,80,1,darab,KA101,nő,2000.,13,2021-05-12_23h41.32.247,ranlexdec,2020.2.5,Win32,60
,,,,,,,,,,,,right,2.546405,0,162,162,88,1,pohár,KA101,nő,2000.,13,2021-05-12_23h41.32.247,ranlexdec,2020.2.5,Win32,60
,,,,,,,,,,,,right,0.897585,0,163,163,206,1,horizont,KA101,nő,2000.,13,2021-05-12_23h41.32.247,ranlexdec,2020.2.5,Win32,60
,,,,,,,,,,,,right,0.72933,0,164,164,200,1,biliárd,KA101,nő,2000.,13,2021-05-12_23h41.32.247,ranlexdec,2020.2.5,Win32,60
,,,,,,,,,,,,right,1.50545,0,165,165,235,1,transzplantál,KA101,nő,2000.,13,2021-05-12_23h41.32.247,ranlexdec,2020.2.5,Win32,60
,,,,,,,,,,,,right,1.263,0,166,166,115,1,fajansz,KA101,nő,2000.,13,2021-05-12_23h41.32.247,ranlexdec,2020.2.5,Win32,60
,,,,,,,,,,,,right,0.97066,0,167,167,2,1,gyásos,KA101,nő,2000.,13,2021-05-12_23h41.32.247,ranlexdec,2020.2.5,Win32,60
,,,,,,,,,,,,right,0.875715,0,168,168,31,1,iszlám,KA101,nő,2000.,13,2021-05-12_23h41.32.247,ranlexdec,2020.2.5,Win32,60
,,,,,,,,,,,,left,0.890605,0,169,169,17,1,magmatit,KA101,nő,2000.,13,2021-05-12_23h41.32.247,ranlexdec,2020.2.5,Win32,60
,,,,,,,,,,,,right,0.83906,0,170,170,221,1,törődik,KA101,nő,2000.,13,2021-05-12_23h41.32.247,ranlexdec,2020.2.5,Win32,60
,,,,,,,,,,,,right,1.013545,0,171,171,92,1,lágyék,KA101,nő,2000.,13,2021-05-12_23h41.32.247,ranlexdec,2020.2.5,Win32,60
,,,,,,,,,,,,left,0.780195,0,172,172,141,1,hider,KA101,nő,2000.,13,2021-05-12_23h41.32.247,ranlexdec,2020.2.5,Win32,60
,,,,,,,,,,,,left,0.94756,0,173,173,147,1,referál,KA101,nő,2000.,13,2021-05-12_23h41.32.247,ranlexdec,2020.2.5,Win32,60
,,,,,,,,,,,,right,0.57307,0,174,174,144,1,rövid,KA101,nő,2000.,13,2021-05-12_23h41.32.247,ranlexdec,2020.2.5,Win32,60
,,,,,,,,,,,,right,0.52978,0,175,175,183,1,színpad,KA101,nő,2000.,13,2021-05-12_23h41.32.247,ranlexdec,2020.2.5,Win32,60
,,,,,,,,,,,,right,0.646865,0,176,176,135,1,ion,KA101,nő,2000.,13,2021-05-12_23h41.32.247,ranlexdec,2020.2.5,Win32,60
,,,,,,,,,,,,left,0.81555,0,177,177,229,1,lemesség,KA101,nő,2000.,13,2021-05-12_23h41.32.247,ranlexdec,2020.2.5,Win32,60
,,,,,,,,,,,,right,0.91756,0,178,178,39,1,könnyelmű,KA101,nő,2000.,13,2021-05-12_23h41.32.247,ranlexdec,2020.2.5,Win32,60
,,,,,,,,,,,,left,0.73391,0,179,179,50,1,csenyei,KA101,nő,2000.,13,2021-05-12_23h41.32.247,ranlexdec,2020.2.5,Win32,60
,,,,,,,,,,,,right,0.665845,0,180,180,20,1,század,KA101,nő,2000.,13,2021-05-12_23h41.32.247,ranlexdec,2020.2.5,Win32,60
,,,,,,,,,,,,left,0.912415,0,181,181,175,1,szilikát,KA101,nő,2000.,13,2021-05-12_23h41.32.247,ranlexdec,2020.2.5,Win32,60
,,,,,,,,,,,,left,0.879405,0,182,182,240,1,áradmány,KA101,nő,2000.,13,2021-05-12_23h41.32.247,ranlexdec,2020.2.5,Win32,60
,,,,,,,,,,,,right,0.694005,0,183,183,227,1,kötődik,KA101,nő,2000.,13,2021-05-12_23h41.32.247,ranlexdec,2020.2.5,Win32,60
,,,,,,,,,,,,left,0.71371,0,184,184,120,1,komál,KA101,nő,2000.,13,2021-05-12_23h41.32.247,ranlexdec,2020.2.5,Win32,60
,,,,,,,,,,,,right,0.755885,0,185,185,220,1,csontdarab,KA101,nő,2000.,13,2021-05-12_23h41.32.247,ranlexdec,2020.2.5,Win32,60
,,,,,,,,,,,,left,1.114305,0,186,186,157,1,káder,KA101,nő,2000.,13,2021-05-12_23h41.32.247,ranlexdec,2020.2.5,Win32,60
,,,,,,,,,,,,left,1.31482,0,187,187,166,1,retálhit,KA101,nő,2000.,13,2021-05-12_23h41.32.247,ranlexdec,2020.2.5,Win32,60
,,,,,,,,,,,,left,1.498215,0,188,188,81,1,takorák,KA101,nő,2000.,13,2021-05-12_23h41.32.247,ranlexdec,2020.2.5,Win32,60
,,,,,,,,,,,,left,0.62997,0,189,189,133,1,hübrisz,KA101,nő,2000.,13,2021-05-12_23h41.32.247,ranlexdec,2020.2.5,Win32,60
,,,,,,,,,,,,left,0.729745,0,190,190,93,1,kilukát,KA101,nő,2000.,13,2021-05-12_23h41.32.247,ranlexdec,2020.2.5,Win32,60
,,,,,,,,,,,,left,0.736095,0,191,191,70,1,lakotthely,KA101,nő,2000.,13,2021-05-12_23h41.32.247,ranlexdec,2020.2.5,Win32,60
,,,,,,,,,,,,right,0.79679,0,192,192,105,1,tököl,KA101,nő,2000.,13,2021-05-12_23h41.32.247,ranlexdec,2020.2.5,Win32,60
,,,,,,,,,,,,left,0.78715,0,193,193,226,1,szalicil,KA101,nő,2000.,13,2021-05-12_23h41.32.247,ranlexdec,2020.2.5,Win32,60
,,,,,,,,,,,,right,1.66244,0,194,194,217,1,ifjít,KA101,nő,2000.,13,2021-05-12_23h41.32.247,ranlexdec,2020.2.5,Win32,60
,,,,,,,,,,,,right,1.183415,0,195,195,232,1,tropikus,KA101,nő,2000.,13,2021-05-12_23h41.32.247,ranlexdec,2020.2.5,Win32,60
,,,,,,,,,,,,right,1.31747,0,196,196,146,1,kondenzcsík,KA101,nő,2000.,13,2021-05-12_23h41.32.247,ranlexdec,2020.2.5,Win32,60
,,,,,,,,,,,,right,0.718905,0,197,197,182,1,nagyszámú,KA101,nő,2000.,13,2021-05-12_23h41.32.247,ranlexdec,2020.2.5,Win32,60
,,,,,,,,,,,,left,2.754075,0,198,198,127,1,rozintem,KA101,nő,2000.,13,2021-05-12_23h41.32.247,ranlexdec,2020.2.5,Win32,60
,,,,,,,,,,,,left,0.758585,0,199,199,173,1,glosszáz,KA101,nő,2000.,13,2021-05-12_23h41.32.247,ranlexdec,2020.2.5,Win32,60
,,,,,,,,,,,,left,0.63219,0,200,200,241,1,kárpit,KA101,nő,2000.,13,2021-05-12_23h41.32.247,ranlexdec,2020.2.5,Win32,60
,,,,,,,,,,,,right,0.798635,0,201,201,116,1,árus,KA101,nő,2000.,13,2021-05-12_23h41.32.247,ranlexdec,2020.2.5,Win32,60
,,,,,,,,,,,,left,0.97943,0,202,202,66,1,parkkói,KA101,nő,2000.,13,2021-05-12_23h41.32.247,ranlexdec,2020.2.5,Win32,60
,,,,,,,,,,,,right,0.65083,0,203,203,41,1,nagybeteg,KA101,nő,2000.,13,2021-05-12_23h41.32.247,ranlexdec,2020.2.5,Win32,60
,,,,,,,,,,,,left,1.08965,0,204,204,167,1,vabank,KA101,nő,2000.,13,2021-05-12_23h41.32.247,ranlexdec,2020.2.5,Win32,60
,,,,,,,,,,,,left,0.769155,0,205,205,57,1,lejmol,KA101,nő,2000.,13,2021-05-12_23h41.32.247,ranlexdec,2020.2.5,Win32,60
,,,,,,,,,,,,left,0.833445,0,206,206,239,1,donhuán,KA101,nő,2000.,13,2021-05-12_23h41.32.247,ranlexdec,2020.2.5,Win32,60
,,,,,,,,,,,,right,0.83081,0,207,207,210,1,karakter,KA101,nő,2000.,13,2021-05-12_23h41.32.247,ranlexdec,2020.2.5,Win32,60
,,,,,,,,,,,,right,1.000405,0,208,208,10,1,nárcisz,KA101,nő,2000.,13,2021-05-12_23h41.32.247,ranlexdec,2020.2.5,Win32,60
,,,,,,,,,,,,right,0.680475,0,209,209,0,1,irány,KA101,nő,2000.,13,2021-05-12_23h41.32.247,ranlexdec,2020.2.5,Win32,60
,,,,,,,,,,,,left,1.980105,0,210,210,153,1,kontrapunkt,KA101,nő,2000.,13,2021-05-12_23h41.32.247,ranlexdec,2020.2.5,Win32,60
,,,,,,,,,,,,right,0.808415,0,211,211,61,1,régész,KA101,nő,2000.,13,2021-05-12_23h41.32.247,ranlexdec,2020.2.5,Win32,60
,,,,,,,,,,,,right,0.913695,0,212,212,185,1,gyülemlik,KA101,nő,2000.,13,2021-05-12_23h41.32.247,ranlexdec,2020.2.5,Win32,60
,,,,,,,,,,,,right,0.770535,0,213,213,28,1,gazdag,KA101,nő,2000.,13,2021-05-12_23h41.32.247,ranlexdec,2020.2.5,Win32,60
,,,,,,,,,,,,left,0.881505,0,214,214,118,1,libling,KA101,nő,2000.,13,2021-05-12_23h41.32.247,ranlexdec,2020.2.5,Win32,60
,,,,,,,,,,,,right,0.796565,0,215,215,246,1,beton,KA101,nő,2000.,13,2021-05-12_23h41.32.247,ranlexdec,2020.2.5,Win32,60
,,,,,,,,,,,,left,0.83025,0,216,216,62,1,bizmut,KA101,nő,2000.,13,2021-05-12_23h41.32.247,ranlexdec,2020.2.5,Win32,60
,,,,,,,,,,,,left,1.158125,0,217,217,222,1,nyersarany,KA101,nő,2000.,13,2021-05-12_23h41.32.247,ranlexdec,2020.2.5,Win32,60
,,,,,,,,,,,,right,0.901995,0,218,218,71,1,extuál,KA101,nő,2000.,13,2021-05-12_23h41.32.247,ranlexdec,2020.2.5,Win32,60
,,,,,,,,,,,,left,0.840935,0,219,219,38,1,zomogyi,KA101,nő,2000.,13,2021-05-12_23h41.32.247,ranlexdec,2020.2.5,Win32,60
,,,,,,,,,,,,left,2.571535,0,220,220,108,1,konyrúd,KA101,nő,2000.,13,2021-05-12_23h41.32.247,ranlexdec,2020.2.5,Win32,60
,,,,,,,,,,,,left,1.184615,0,221,221,205,1,mimézis,KA101,nő,2000.,13,2021-05-12_23h41.32.247,ranlexdec,2020.2.5,Win32,60
,,,,,,,,,,,,right,0.871235,0,222,222,140,1,diktátor,KA101,nő,2000.,13,2021-05-12_23h41.32.247,ranlexdec,2020.2.5,Win32,60
,,,,,,,,,,,,left,1.31506,0,223,223,136,1,rücsök,KA101,nő,2000.,13,2021-05-12_23h41.32.247,ranlexdec,2020.2.5,Win32,60
,,,,,,,,,,,,right,0.933285,0,224,224,19,1,tangózik,KA101,nő,2000.,13,2021-05-12_23h41.32.247,ranlexdec,2020.2.5,Win32,60
,,,,,,,,,,,,left,0.80299,0,225,225,186,1,piláf,KA101,nő,2000.,13,2021-05-12_23h41.32.247,ranlexdec,2020.2.5,Win32,60
,,,,,,,,,,,,left,0.77971,0,226,226,44,1,ingváll,KA101,nő,2000.,13,2021-05-12_23h41.32.247,ranlexdec,2020.2.5,Win32,60
,,,,,,,,,,,,left,0.973695,0,227,227,68,1,kitin,KA101,nő,2000.,13,2021-05-12_23h41.32.247,ranlexdec,2020.2.5,Win32,60
,,,,,,,,,,,,left,0.785955,0,228,228,121,1,aggófű,KA101,nő,2000.,13,2021-05-12_23h41.32.247,ranlexdec,2020.2.5,Win32,60
,,,,,,,,,,,,right,1.269115,0,229,229,89,1,szokik,KA101,nő,2000.,13,2021-05-12_23h41.32.247,ranlexdec,2020.2.5,Win32,60
,,,,,,,,,,,,right,2.990235,0,230,230,122,1,égitest,KA101,nő,2000.,13,2021-05-12_23h41.32.247,ranlexdec,2020.2.5,Win32,60
,,,,,,,,,,,,left,1.007975,0,231,231,83,1,vonzum,KA101,nő,2000.,13,2021-05-12_23h41.32.247,ranlexdec,2020.2.5,Win32,60
,,,,,,,,,,,,left,0.93305,0,232,232,101,1,nukleon,KA101,nő,2000.,13,2021-05-12_23h41.32.247,ranlexdec,2020.2.5,Win32,60
,,,,,,,,,,,,left,1.180165,0,233,233,197,1,krakéler,KA101,nő,2000.,13,2021-05-12_23h41.32.247,ranlexdec,2020.2.5,Win32,60
,,,,,,,,,,,,left,0.696445,0,234,234,77,1,egant,KA101,nő,2000.,13,2021-05-12_23h41.32.247,ranlexdec,2020.2.5,Win32,60
,,,,,,,,,,,,left,0.815165,0,235,235,123,1,luftballon,KA101,nő,2000.,13,2021-05-12_23h41.32.247,ranlexdec,2020.2.5,Win32,60
,,,,,,,,,,,,left,0.91727,0,236,236,26,1,aurult,KA101,nő,2000.,13,2021-05-12_23h41.32.247,ranlexdec,2020.2.5,Win32,60
,,,,,,,,,,,,left,1.797745,0,237,237,21,1,heveny,KA101,nő,2000.,13,2021-05-12_23h41.32.247,ranlexdec,2020.2.5,Win32,60
,,,,,,,,,,,,right,0.862865,0,238,238,13,1,törköly,KA101,nő,2000.,13,2021-05-12_23h41.32.247,ranlexdec,2020.2.5,Win32,60
,,,,,,,,,,,,right,0.996795,0,239,239,90,1,orális,KA101,nő,2000.,13,2021-05-12_23h41.32.247,ranlexdec,2020.2.5,Win32,60
,,,,,,,,,,,,left,0.735585,0,240,240,32,1,genom,KA101,nő,2000.,13,2021-05-12_23h41.32.247,ranlexdec,2020.2.5,Win32,60
,,,,,,,,,,,,right,0.701785,0,241,241,48,1,reagál,KA101,nő,2000.,13,2021-05-12_23h41.32.247,ranlexdec,2020.2.5,Win32,60
,,,,,,,,,,,,left,1.12372,0,242,242,242,1,rekvizit,KA101,nő,2000.,13,2021-05-12_23h41.32.247,ranlexdec,2020.2.5,Win32,60
,,,,,,,,,,,,right,0.914315,0,243,243,159,1,elegy,KA101,nő,2000.,13,2021-05-12_23h41.32.247,ranlexdec,2020.2.5,Win32,60
,,,,,,,,,,,,right,0.883565,0,244,244,178,1,sziszeg,KA101,nő,2000.,13,2021-05-12_23h41.32.247,ranlexdec,2020.2.5,Win32,60
,,,,,,,,,,,,right,0.69901,0,245,245,177,1,pereg,KA101,nő,2000.,13,2021-05-12_23h41.32.247,ranlexdec,2020.2.5,Win32,60
,,,,,,,,,,,,left,1.66963,0,246,246,94,1,rotor,KA101,nő,2000.,13,2021-05-12_23h41.32.247,ranlexdec,2020.2.5,Win32,60
,,,,,,,,,,,,right,0.82443,0,247,247,158,1,hidroxid,KA101,nő,2000.,13,2021-05-12_23h41.32.247,ranlexdec,2020.2.5,Win32,60
,,,,,,,,,,,,right,0.803435,0,248,248,161,1,példakép,KA101,nő,2000.,13,2021-05-12_23h41.32.247,ranlexdec,2020.2.5,Win32,60
,,,,,,,,,,,,right,0.716145,0,249,249,51,1,bajuszfű,KA101,nő,2000.,13,2021-05-12_23h41.32.247,ranlexdec,2020.2.5,Win32,60
