ready2_2.keys,ready2_2.rt,ready2.keys,ready2.rt,key_resp.keys,key_resp.rt,key_resp_3.keys,key_resp_3.rt,key_resp_2.keys,key_resp_2.rt,ready3.keys,ready3.rt,resp.keys,resp.rt,withinBlock.thisRepN,withinBlock.thisTrialN,withinBlock.thisN,withinBlock.thisIndex,withinBlock.ran,word,Azonosító,Az Ön neme,Születési éve,Hány évet töltött az iskolapadban (egyetemet is beleértve),date,expName,psychopyVersion,OS,frameRate
space,45.37658,space,45.110375,right,16.334205,left,3.08642,left,2.271015,left,13.55432,right,0.909685,0,0,0,144,1,rövid,KT116,Nő,2001,13,2021-05-13_08h56.38.601,ranlexdec,2020.2.5,Win32,60
,,,,,,,,,,,,left,2.935975,0,1,1,46,1,kurzív,KT116,Nő,2001,13,2021-05-13_08h56.38.601,ranlexdec,2020.2.5,Win32,60
,,,,,,,,,,,,right,3.20163,0,2,2,11,1,viszkóz,KT116,Nő,2001,13,2021-05-13_08h56.38.601,ranlexdec,2020.2.5,Win32,60
,,,,,,,,,,,,left,2.184015,0,3,3,72,1,mihálóz,KT116,Nő,2001,13,2021-05-13_08h56.38.601,ranlexdec,2020.2.5,Win32,60
,,,,,,,,,,,,left,4.600735,0,4,4,97,1,vésségi,KT116,Nő,2001,13,2021-05-13_08h56.38.601,ranlexdec,2020.2.5,Win32,60
,,,,,,,,,,,,right,2.804215,0,5,5,157,1,káder,KT116,Nő,2001,13,2021-05-13_08h56.38.601,ranlexdec,2020.2.5,Win32,60
,,,,,,,,,,,,right,2.19802,0,6,6,216,1,svábtök,KT116,Nő,2001,13,2021-05-13_08h56.38.601,ranlexdec,2020.2.5,Win32,60
,,,,,,,,,,,,left,2.840615,0,7,7,117,1,ószeven,KT116,Nő,2001,13,2021-05-13_08h56.38.601,ranlexdec,2020.2.5,Win32,60
,,,,,,,,,,,,right,0.96333,0,8,8,132,1,hatalom,KT116,Nő,2001,13,2021-05-13_08h56.38.601,ranlexdec,2020.2.5,Win32,60
,,,,,,,,,,,,left,1.610095,0,9,9,192,1,norvend,KT116,Nő,2001,13,2021-05-13_08h56.38.601,ranlexdec,2020.2.5,Win32,60
,,,,,,,,,,,,right,2.348525,0,10,10,162,1,nimbus,KT116,Nő,2001,13,2021-05-13_08h56.38.601,ranlexdec,2020.2.5,Win32,60
,,,,,,,,,,,,left,1.233605,0,11,11,49,1,ernyak,KT116,Nő,2001,13,2021-05-13_08h56.38.601,ranlexdec,2020.2.5,Win32,60
,,,,,,,,,,,,right,2.621075,0,12,12,187,1,testnedv,KT116,Nő,2001,13,2021-05-13_08h56.38.601,ranlexdec,2020.2.5,Win32,60
,,,,,,,,,,,,right,1.302495,0,13,13,122,1,égitest,KT116,Nő,2001,13,2021-05-13_08h56.38.601,ranlexdec,2020.2.5,Win32,60
,,,,,,,,,,,,left,1.783845,0,14,14,3,1,tömzsa,KT116,Nő,2001,13,2021-05-13_08h56.38.601,ranlexdec,2020.2.5,Win32,60
,,,,,,,,,,,,left,2.296675,0,15,15,136,1,rücsök,KT116,Nő,2001,13,2021-05-13_08h56.38.601,ranlexdec,2020.2.5,Win32,60
,,,,,,,,,,,,right,2.214235,0,16,16,148,1,mellényzseb,KT116,Nő,2001,13,2021-05-13_08h56.38.601,ranlexdec,2020.2.5,Win32,60
,,,,,,,,,,,,right,2.011585,0,17,17,22,1,arzénsav,KT116,Nő,2001,13,2021-05-13_08h56.38.601,ranlexdec,2020.2.5,Win32,60
,,,,,,,,,,,,right,1.20973,0,18,18,37,1,lukaszt,KT116,Nő,2001,13,2021-05-13_08h56.38.601,ranlexdec,2020.2.5,Win32,60
,,,,,,,,,,,,left,1.43682,0,19,19,50,1,csenyei,KT116,Nő,2001,13,2021-05-13_08h56.38.601,ranlexdec,2020.2.5,Win32,60
,,,,,,,,,,,,right,2.56471,0,20,20,96,1,alfél,KT116,Nő,2001,13,2021-05-13_08h56.38.601,ranlexdec,2020.2.5,Win32,60
,,,,,,,,,,,,right,1.51342,0,21,21,185,1,gyülemlik,KT116,Nő,2001,13,2021-05-13_08h56.38.601,ranlexdec,2020.2.5,Win32,60
,,,,,,,,,,,,right,1.210855,0,22,22,227,1,kötődik,KT116,Nő,2001,13,2021-05-13_08h56.38.601,ranlexdec,2020.2.5,Win32,60
,,,,,,,,,,,,left,4.40277,0,23,23,234,1,fertilis,KT116,Nő,2001,13,2021-05-13_08h56.38.601,ranlexdec,2020.2.5,Win32,60
,,,,,,,,,,,,right,1.41871,0,24,24,99,1,sárgaréz,KT116,Nő,2001,13,2021-05-13_08h56.38.601,ranlexdec,2020.2.5,Win32,60
,,,,,,,,,,,,right,1.26893,0,25,25,0,1,irány,KT116,Nő,2001,13,2021-05-13_08h56.38.601,ranlexdec,2020.2.5,Win32,60
,,,,,,,,,,,,right,4.202695,0,26,26,84,1,kúpol,KT116,Nő,2001,13,2021-05-13_08h56.38.601,ranlexdec,2020.2.5,Win32,60
,,,,,,,,,,,,right,1.235465,0,27,27,150,1,orront,KT116,Nő,2001,13,2021-05-13_08h56.38.601,ranlexdec,2020.2.5,Win32,60
,,,,,,,,,,,,right,2.618645,0,28,28,147,1,referál,KT116,Nő,2001,13,2021-05-13_08h56.38.601,ranlexdec,2020.2.5,Win32,60
,,,,,,,,,,,,left,4.200635,0,29,29,76,1,jegedény,KT116,Nő,2001,13,2021-05-13_08h56.38.601,ranlexdec,2020.2.5,Win32,60
,,,,,,,,,,,,left,3.43908,0,30,30,229,1,lemesség,KT116,Nő,2001,13,2021-05-13_08h56.38.601,ranlexdec,2020.2.5,Win32,60
,,,,,,,,,,,,right,2.67741,0,31,31,146,1,kondenzcsík,KT116,Nő,2001,13,2021-05-13_08h56.38.601,ranlexdec,2020.2.5,Win32,60
,,,,,,,,,,,,right,1.496215,0,32,32,119,1,cugehőr,KT116,Nő,2001,13,2021-05-13_08h56.38.601,ranlexdec,2020.2.5,Win32,60
,,,,,,,,,,,,right,1.37034,0,33,33,169,1,komoly,KT116,Nő,2001,13,2021-05-13_08h56.38.601,ranlexdec,2020.2.5,Win32,60
,,,,,,,,,,,,right,1.00292,0,34,34,247,1,ausztrál,KT116,Nő,2001,13,2021-05-13_08h56.38.601,ranlexdec,2020.2.5,Win32,60
,,,,,,,,,,,,left,1.5186,0,35,35,207,1,diffamál,KT116,Nő,2001,13,2021-05-13_08h56.38.601,ranlexdec,2020.2.5,Win32,60
,,,,,,,,,,,,left,1.969155,0,36,36,223,1,árstop,KT116,Nő,2001,13,2021-05-13_08h56.38.601,ranlexdec,2020.2.5,Win32,60
,,,,,,,,,,,,right,1.20435,0,37,37,20,1,század,KT116,Nő,2001,13,2021-05-13_08h56.38.601,ranlexdec,2020.2.5,Win32,60
,,,,,,,,,,,,right,1.25152,0,38,38,126,1,rejtőzik,KT116,Nő,2001,13,2021-05-13_08h56.38.601,ranlexdec,2020.2.5,Win32,60
,,,,,,,,,,,,left,3.38556,0,39,39,13,1,törköly,KT116,Nő,2001,13,2021-05-13_08h56.38.601,ranlexdec,2020.2.5,Win32,60
,,,,,,,,,,,,left,1.552625,0,40,40,36,1,tröshet,KT116,Nő,2001,13,2021-05-13_08h56.38.601,ranlexdec,2020.2.5,Win32,60
,,,,,,,,,,,,right,1.353735,0,41,41,33,1,kalcium,KT116,Nő,2001,13,2021-05-13_08h56.38.601,ranlexdec,2020.2.5,Win32,60
,,,,,,,,,,,,left,2.619245,0,42,42,16,1,cséltás,KT116,Nő,2001,13,2021-05-13_08h56.38.601,ranlexdec,2020.2.5,Win32,60
,,,,,,,,,,,,left,1.51901,0,43,43,203,1,abeti,KT116,Nő,2001,13,2021-05-13_08h56.38.601,ranlexdec,2020.2.5,Win32,60
,,,,,,,,,,,,left,3.85262,0,44,44,23,1,szelégül,KT116,Nő,2001,13,2021-05-13_08h56.38.601,ranlexdec,2020.2.5,Win32,60
,,,,,,,,,,,,left,2.985185,0,45,45,195,1,petél,KT116,Nő,2001,13,2021-05-13_08h56.38.601,ranlexdec,2020.2.5,Win32,60
,,,,,,,,,,,,right,0.76886,0,46,46,141,1,hider,KT116,Nő,2001,13,2021-05-13_08h56.38.601,ranlexdec,2020.2.5,Win32,60
,,,,,,,,,,,,left,3.118485,0,47,47,166,1,retálhit,KT116,Nő,2001,13,2021-05-13_08h56.38.601,ranlexdec,2020.2.5,Win32,60
,,,,,,,,,,,,left,3.03531,0,48,48,131,1,vetézmés,KT116,Nő,2001,13,2021-05-13_08h56.38.601,ranlexdec,2020.2.5,Win32,60
,,,,,,,,,,,,left,2.669245,0,49,49,17,1,magmatit,KT116,Nő,2001,13,2021-05-13_08h56.38.601,ranlexdec,2020.2.5,Win32,60
,,,,,,,,,,,,right,0.78538,0,50,50,188,1,sugár,KT116,Nő,2001,13,2021-05-13_08h56.38.601,ranlexdec,2020.2.5,Win32,60
,,,,,,,,,,,,right,0.652515,0,51,51,196,1,dolgozik,KT116,Nő,2001,13,2021-05-13_08h56.38.601,ranlexdec,2020.2.5,Win32,60
,,,,,,,,,,,,right,0.802275,0,52,52,78,1,törékeny,KT116,Nő,2001,13,2021-05-13_08h56.38.601,ranlexdec,2020.2.5,Win32,60
,,,,,,,,,,,,right,0.70419,0,53,53,214,1,tenger,KT116,Nő,2001,13,2021-05-13_08h56.38.601,ranlexdec,2020.2.5,Win32,60
,,,,,,,,,,,,right,1.593465,0,54,54,193,1,bacon,KT116,Nő,2001,13,2021-05-13_08h56.38.601,ranlexdec,2020.2.5,Win32,60
,,,,,,,,,,,,right,1.455965,0,55,55,156,1,lazúroz,KT116,Nő,2001,13,2021-05-13_08h56.38.601,ranlexdec,2020.2.5,Win32,60
,,,,,,,,,,,,right,0.94804,0,56,56,138,1,gyűjtemény,KT116,Nő,2001,13,2021-05-13_08h56.38.601,ranlexdec,2020.2.5,Win32,60
,,,,,,,,,,,,left,4.006115,0,57,57,153,1,kontrapunkt,KT116,Nő,2001,13,2021-05-13_08h56.38.601,ranlexdec,2020.2.5,Win32,60
,,,,,,,,,,,,right,1.06461,0,58,58,56,1,kanalaz,KT116,Nő,2001,13,2021-05-13_08h56.38.601,ranlexdec,2020.2.5,Win32,60
,,,,,,,,,,,,right,0.636755,0,59,59,116,1,árus,KT116,Nő,2001,13,2021-05-13_08h56.38.601,ranlexdec,2020.2.5,Win32,60
,,,,,,,,,,,,right,0.66901,0,60,60,67,1,szegény,KT116,Nő,2001,13,2021-05-13_08h56.38.601,ranlexdec,2020.2.5,Win32,60
,,,,,,,,,,,,right,0.855645,0,61,61,53,1,puritán,KT116,Nő,2001,13,2021-05-13_08h56.38.601,ranlexdec,2020.2.5,Win32,60
,,,,,,,,,,,,right,0.903775,0,62,62,105,1,tököl,KT116,Nő,2001,13,2021-05-13_08h56.38.601,ranlexdec,2020.2.5,Win32,60
,,,,,,,,,,,,right,0.702245,0,63,63,151,1,komplex,KT116,Nő,2001,13,2021-05-13_08h56.38.601,ranlexdec,2020.2.5,Win32,60
,,,,,,,,,,,,right,1.242545,0,64,64,51,1,bajuszfű,KT116,Nő,2001,13,2021-05-13_08h56.38.601,ranlexdec,2020.2.5,Win32,60
,,,,,,,,,,,,right,2.12079,0,65,65,48,1,reagál,KT116,Nő,2001,13,2021-05-13_08h56.38.601,ranlexdec,2020.2.5,Win32,60
,,,,,,,,,,,,left,1.343525,0,66,66,24,1,kosi,KT116,Nő,2001,13,2021-05-13_08h56.38.601,ranlexdec,2020.2.5,Win32,60
,,,,,,,,,,,,right,1.30636,0,67,67,209,1,hidegház,KT116,Nő,2001,13,2021-05-13_08h56.38.601,ranlexdec,2020.2.5,Win32,60
,,,,,,,,,,,,right,1.64327,0,68,68,113,1,piktogram,KT116,Nő,2001,13,2021-05-13_08h56.38.601,ranlexdec,2020.2.5,Win32,60
,,,,,,,,,,,,right,1.45303,0,69,69,10,1,nárcisz,KT116,Nő,2001,13,2021-05-13_08h56.38.601,ranlexdec,2020.2.5,Win32,60
,,,,,,,,,,,,right,1.12277,0,70,70,168,1,grafikon,KT116,Nő,2001,13,2021-05-13_08h56.38.601,ranlexdec,2020.2.5,Win32,60
,,,,,,,,,,,,left,2.681685,0,71,71,108,1,konyrúd,KT116,Nő,2001,13,2021-05-13_08h56.38.601,ranlexdec,2020.2.5,Win32,60
,,,,,,,,,,,,left,1.614825,0,72,72,204,1,kocskesi,KT116,Nő,2001,13,2021-05-13_08h56.38.601,ranlexdec,2020.2.5,Win32,60
,,,,,,,,,,,,right,0.949285,0,73,73,213,1,eszköz,KT116,Nő,2001,13,2021-05-13_08h56.38.601,ranlexdec,2020.2.5,Win32,60
,,,,,,,,,,,,left,3.231185,0,74,74,93,1,kilukát,KT116,Nő,2001,13,2021-05-13_08h56.38.601,ranlexdec,2020.2.5,Win32,60
,,,,,,,,,,,,right,0.90208,0,75,75,228,1,tarol,KT116,Nő,2001,13,2021-05-13_08h56.38.601,ranlexdec,2020.2.5,Win32,60
,,,,,,,,,,,,right,1.20246,0,76,76,236,1,csatázik,KT116,Nő,2001,13,2021-05-13_08h56.38.601,ranlexdec,2020.2.5,Win32,60
,,,,,,,,,,,,right,1.268895,0,77,77,57,1,lejmol,KT116,Nő,2001,13,2021-05-13_08h56.38.601,ranlexdec,2020.2.5,Win32,60
,,,,,,,,,,,,left,1.286725,0,78,78,26,1,aurult,KT116,Nő,2001,13,2021-05-13_08h56.38.601,ranlexdec,2020.2.5,Win32,60
,,,,,,,,,,,,right,0.885555,0,79,79,161,1,példakép,KT116,Nő,2001,13,2021-05-13_08h56.38.601,ranlexdec,2020.2.5,Win32,60
,,,,,,,,,,,,right,1.735335,0,80,80,8,1,kulcscsont,KT116,Nő,2001,13,2021-05-13_08h56.38.601,ranlexdec,2020.2.5,Win32,60
,,,,,,,,,,,,right,1.819245,0,81,81,6,1,csüggeszt,KT116,Nő,2001,13,2021-05-13_08h56.38.601,ranlexdec,2020.2.5,Win32,60
,,,,,,,,,,,,right,1.153885,0,82,82,32,1,genom,KT116,Nő,2001,13,2021-05-13_08h56.38.601,ranlexdec,2020.2.5,Win32,60
,,,,,,,,,,,,left,4.751955,0,83,83,42,1,összalaj,KT116,Nő,2001,13,2021-05-13_08h56.38.601,ranlexdec,2020.2.5,Win32,60
,,,,,,,,,,,,right,2.302165,0,84,84,139,1,vároló,KT116,Nő,2001,13,2021-05-13_08h56.38.601,ranlexdec,2020.2.5,Win32,60
,,,,,,,,,,,,right,3.05569,0,85,85,130,1,derít,KT116,Nő,2001,13,2021-05-13_08h56.38.601,ranlexdec,2020.2.5,Win32,60
,,,,,,,,,,,,right,0.897945,0,86,86,241,1,kárpit,KT116,Nő,2001,13,2021-05-13_08h56.38.601,ranlexdec,2020.2.5,Win32,60
,,,,,,,,,,,,right,1.249205,0,87,87,63,1,viszkózus,KT116,Nő,2001,13,2021-05-13_08h56.38.601,ranlexdec,2020.2.5,Win32,60
,,,,,,,,,,,,right,0.87865,0,88,88,92,1,lágyék,KT116,Nő,2001,13,2021-05-13_08h56.38.601,ranlexdec,2020.2.5,Win32,60
,,,,,,,,,,,,right,0.984035,0,89,89,115,1,fajansz,KT116,Nő,2001,13,2021-05-13_08h56.38.601,ranlexdec,2020.2.5,Win32,60
,,,,,,,,,,,,left,1.231915,0,90,90,15,1,pauzál,KT116,Nő,2001,13,2021-05-13_08h56.38.601,ranlexdec,2020.2.5,Win32,60
,,,,,,,,,,,,right,0.97797,0,91,91,208,1,lélek,KT116,Nő,2001,13,2021-05-13_08h56.38.601,ranlexdec,2020.2.5,Win32,60
,,,,,,,,,,,,right,1.364085,0,92,92,212,1,farkasbab,KT116,Nő,2001,13,2021-05-13_08h56.38.601,ranlexdec,2020.2.5,Win32,60
,,,,,,,,,,,,right,2.976825,0,93,93,101,1,nukleon,KT116,Nő,2001,13,2021-05-13_08h56.38.601,ranlexdec,2020.2.5,Win32,60
,,,,,,,,,,,,left,1.04899,0,94,94,30,1,dádá,KT116,Nő,2001,13,2021-05-13_08h56.38.601,ranlexdec,2020.2.5,Win32,60
,,,,,,,,,,,,right,2.84665,0,95,95,134,1,móringol,KT116,Nő,2001,13,2021-05-13_08h56.38.601,ranlexdec,2020.2.5,Win32,60
,,,,,,,,,,,,left,1.218695,0,96,96,52,1,kunyai,KT116,Nő,2001,13,2021-05-13_08h56.38.601,ranlexdec,2020.2.5,Win32,60
,,,,,,,,,,,,right,0.80683,0,97,97,238,1,bolgár,KT116,Nő,2001,13,2021-05-13_08h56.38.601,ranlexdec,2020.2.5,Win32,60
,,,,,,,,,,,,right,0.959325,0,98,98,183,1,színpad,KT116,Nő,2001,13,2021-05-13_08h56.38.601,ranlexdec,2020.2.5,Win32,60
,,,,,,,,,,,,right,1.804535,0,99,99,69,1,gerencsér,KT116,Nő,2001,13,2021-05-13_08h56.38.601,ranlexdec,2020.2.5,Win32,60
,,,,,,,,,,,,right,4.352655,0,100,100,118,1,libling,KT116,Nő,2001,13,2021-05-13_08h56.38.601,ranlexdec,2020.2.5,Win32,60
,,,,,,,,,,,,right,1.285205,0,101,101,201,1,szempont,KT116,Nő,2001,13,2021-05-13_08h56.38.601,ranlexdec,2020.2.5,Win32,60
,,,,,,,,,,,,right,1.482065,0,102,102,123,1,luftballon,KT116,Nő,2001,13,2021-05-13_08h56.38.601,ranlexdec,2020.2.5,Win32,60
,,,,,,,,,,,,right,1.181,0,103,103,145,1,kurtít,KT116,Nő,2001,13,2021-05-13_08h56.38.601,ranlexdec,2020.2.5,Win32,60
,,,,,,,,,,,,left,1.414965,0,104,104,29,1,novagár,KT116,Nő,2001,13,2021-05-13_08h56.38.601,ranlexdec,2020.2.5,Win32,60
,,,,,,,,,,,,right,1.027,0,105,105,210,1,karakter,KT116,Nő,2001,13,2021-05-13_08h56.38.601,ranlexdec,2020.2.5,Win32,60
,,,,,,,,,,,,right,1.681115,0,106,106,239,1,donhuán,KT116,Nő,2001,13,2021-05-13_08h56.38.601,ranlexdec,2020.2.5,Win32,60
,,,,,,,,,,,,right,0.931155,0,107,107,31,1,iszlám,KT116,Nő,2001,13,2021-05-13_08h56.38.601,ranlexdec,2020.2.5,Win32,60
,,,,,,,,,,,,right,0.701945,0,108,108,55,1,látszik,KT116,Nő,2001,13,2021-05-13_08h56.38.601,ranlexdec,2020.2.5,Win32,60
,,,,,,,,,,,,right,0.796255,0,109,109,79,1,extrém,KT116,Nő,2001,13,2021-05-13_08h56.38.601,ranlexdec,2020.2.5,Win32,60
,,,,,,,,,,,,left,2.603915,0,110,110,109,1,vényegő,KT116,Nő,2001,13,2021-05-13_08h56.38.601,ranlexdec,2020.2.5,Win32,60
,,,,,,,,,,,,left,0.978235,0,111,111,83,1,vonzum,KT116,Nő,2001,13,2021-05-13_08h56.38.601,ranlexdec,2020.2.5,Win32,60
,,,,,,,,,,,,right,0.97507,0,112,112,200,1,biliárd,KT116,Nő,2001,13,2021-05-13_08h56.38.601,ranlexdec,2020.2.5,Win32,60
,,,,,,,,,,,,left,1.70999,0,113,113,217,1,ifjít,KT116,Nő,2001,13,2021-05-13_08h56.38.601,ranlexdec,2020.2.5,Win32,60
,,,,,,,,,,,,right,1.667095,0,114,114,149,1,anorák,KT116,Nő,2001,13,2021-05-13_08h56.38.601,ranlexdec,2020.2.5,Win32,60
,,,,,,,,,,,,right,0.819425,0,115,115,171,1,újgazdag,KT116,Nő,2001,13,2021-05-13_08h56.38.601,ranlexdec,2020.2.5,Win32,60
,,,,,,,,,,,,left,1.19875,0,116,116,47,1,döföl,KT116,Nő,2001,13,2021-05-13_08h56.38.601,ranlexdec,2020.2.5,Win32,60
,,,,,,,,,,,,right,0.86282,0,117,117,7,1,űrlap,KT116,Nő,2001,13,2021-05-13_08h56.38.601,ranlexdec,2020.2.5,Win32,60
,,,,,,,,,,,,right,1.131555,0,118,118,158,1,hidroxid,KT116,Nő,2001,13,2021-05-13_08h56.38.601,ranlexdec,2020.2.5,Win32,60
,,,,,,,,,,,,right,1.760995,0,119,119,62,1,bizmut,KT116,Nő,2001,13,2021-05-13_08h56.38.601,ranlexdec,2020.2.5,Win32,60
,,,,,,,,,,,,right,3.014475,0,120,120,249,1,kencéz,KT116,Nő,2001,13,2021-05-13_08h56.38.601,ranlexdec,2020.2.5,Win32,60
,,,,,,,,,,,,right,1.001715,0,121,121,85,1,glükóz,KT116,Nő,2001,13,2021-05-13_08h56.38.601,ranlexdec,2020.2.5,Win32,60
,,,,,,,,,,,,left,2.51534,0,122,122,81,1,takorák,KT116,Nő,2001,13,2021-05-13_08h56.38.601,ranlexdec,2020.2.5,Win32,60
,,,,,,,,,,,,left,1.561895,0,123,123,222,1,nyersarany,KT116,Nő,2001,13,2021-05-13_08h56.38.601,ranlexdec,2020.2.5,Win32,60
,,,,,,,,,,,,right,1.12655,0,124,124,246,1,beton,KT116,Nő,2001,13,2021-05-13_08h56.38.601,ranlexdec,2020.2.5,Win32,60
,,,,,,,,,,,,right,1.323865,0,125,125,170,1,változik,KT116,Nő,2001,13,2021-05-13_08h56.38.601,ranlexdec,2020.2.5,Win32,60
,,,,,,,,,,,,right,3.56464,0,126,126,235,1,transzplantál,KT116,Nő,2001,13,2021-05-13_08h56.38.601,ranlexdec,2020.2.5,Win32,60
,,,,,,,,,,,,right,1.65131,0,127,127,64,1,hálózsák,KT116,Nő,2001,13,2021-05-13_08h56.38.601,ranlexdec,2020.2.5,Win32,60
,,,,,,,,,,,,right,0.928905,0,128,128,124,1,alkalom,KT116,Nő,2001,13,2021-05-13_08h56.38.601,ranlexdec,2020.2.5,Win32,60
,,,,,,,,,,,,right,1.46421,0,129,129,35,1,türemlik,KT116,Nő,2001,13,2021-05-13_08h56.38.601,ranlexdec,2020.2.5,Win32,60
,,,,,,,,,,,,left,2.141845,0,130,130,167,1,vabank,KT116,Nő,2001,13,2021-05-13_08h56.38.601,ranlexdec,2020.2.5,Win32,60
,,,,,,,,,,,,right,1.068695,0,131,131,172,1,kettősfém,KT116,Nő,2001,13,2021-05-13_08h56.38.601,ranlexdec,2020.2.5,Win32,60
,,,,,,,,,,,,left,2.636855,0,132,132,142,1,storítő,KT116,Nő,2001,13,2021-05-13_08h56.38.601,ranlexdec,2020.2.5,Win32,60
,,,,,,,,,,,,right,1.03431,0,133,133,110,1,időszak,KT116,Nő,2001,13,2021-05-13_08h56.38.601,ranlexdec,2020.2.5,Win32,60
,,,,,,,,,,,,right,0.83042,0,134,134,34,1,csengettyű,KT116,Nő,2001,13,2021-05-13_08h56.38.601,ranlexdec,2020.2.5,Win32,60
,,,,,,,,,,,,right,0.889795,0,135,135,43,1,közhely,KT116,Nő,2001,13,2021-05-13_08h56.38.601,ranlexdec,2020.2.5,Win32,60
,,,,,,,,,,,,right,0.94758,0,136,136,59,1,ómagyar,KT116,Nő,2001,13,2021-05-13_08h56.38.601,ranlexdec,2020.2.5,Win32,60
,,,,,,,,,,,,right,2.676525,0,137,137,237,1,forgórész,KT116,Nő,2001,13,2021-05-13_08h56.38.601,ranlexdec,2020.2.5,Win32,60
,,,,,,,,,,,,right,0.80367,0,138,138,230,1,délceg,KT116,Nő,2001,13,2021-05-13_08h56.38.601,ranlexdec,2020.2.5,Win32,60
,,,,,,,,,,,,right,0.684155,0,139,139,73,1,olaj,KT116,Nő,2001,13,2021-05-13_08h56.38.601,ranlexdec,2020.2.5,Win32,60
,,,,,,,,,,,,right,0.74838,0,140,140,114,1,tartalom,KT116,Nő,2001,13,2021-05-13_08h56.38.601,ranlexdec,2020.2.5,Win32,60
,,,,,,,,,,,,right,0.88135,0,141,141,231,1,igény,KT116,Nő,2001,13,2021-05-13_08h56.38.601,ranlexdec,2020.2.5,Win32,60
,,,,,,,,,,,,right,0.922735,0,142,142,14,1,selypít,KT116,Nő,2001,13,2021-05-13_08h56.38.601,ranlexdec,2020.2.5,Win32,60
,,,,,,,,,,,,left,2.18575,0,143,143,224,1,truccol,KT116,Nő,2001,13,2021-05-13_08h56.38.601,ranlexdec,2020.2.5,Win32,60
,,,,,,,,,,,,right,1.154345,0,144,144,19,1,tangózik,KT116,Nő,2001,13,2021-05-13_08h56.38.601,ranlexdec,2020.2.5,Win32,60
,,,,,,,,,,,,right,1.43689,0,145,145,44,1,ingváll,KT116,Nő,2001,13,2021-05-13_08h56.38.601,ranlexdec,2020.2.5,Win32,60
,,,,,,,,,,,,left,1.17541,0,146,146,77,1,egant,KT116,Nő,2001,13,2021-05-13_08h56.38.601,ranlexdec,2020.2.5,Win32,60
,,,,,,,,,,,,left,2.59781,0,147,147,2,1,gyásos,KT116,Nő,2001,13,2021-05-13_08h56.38.601,ranlexdec,2020.2.5,Win32,60
,,,,,,,,,,,,right,1.13225,0,148,148,202,1,abszint,KT116,Nő,2001,13,2021-05-13_08h56.38.601,ranlexdec,2020.2.5,Win32,60
,,,,,,,,,,,,right,1.70407,0,149,149,164,1,kurzivál,KT116,Nő,2001,13,2021-05-13_08h56.38.601,ranlexdec,2020.2.5,Win32,60
,,,,,,,,,,,,right,0.68084,0,150,150,104,1,dolog,KT116,Nő,2001,13,2021-05-13_08h56.38.601,ranlexdec,2020.2.5,Win32,60
,,,,,,,,,,,,right,0.58127,0,151,151,88,1,pohár,KT116,Nő,2001,13,2021-05-13_08h56.38.601,ranlexdec,2020.2.5,Win32,60
,,,,,,,,,,,,left,1.994485,0,152,152,91,1,tajtásos,KT116,Nő,2001,13,2021-05-13_08h56.38.601,ranlexdec,2020.2.5,Win32,60
,,,,,,,,,,,,right,0.66458,0,153,153,244,1,kislány,KT116,Nő,2001,13,2021-05-13_08h56.38.601,ranlexdec,2020.2.5,Win32,60
,,,,,,,,,,,,right,2.24867,0,154,154,27,1,sporthorgász,KT116,Nő,2001,13,2021-05-13_08h56.38.601,ranlexdec,2020.2.5,Win32,60
,,,,,,,,,,,,left,1.19539,0,155,155,94,1,rotor,KT116,Nő,2001,13,2021-05-13_08h56.38.601,ranlexdec,2020.2.5,Win32,60
,,,,,,,,,,,,right,1.617115,0,156,156,18,1,csapattest,KT116,Nő,2001,13,2021-05-13_08h56.38.601,ranlexdec,2020.2.5,Win32,60
,,,,,,,,,,,,right,1.568745,0,157,157,206,1,horizont,KT116,Nő,2001,13,2021-05-13_08h56.38.601,ranlexdec,2020.2.5,Win32,60
,,,,,,,,,,,,right,0.908905,0,158,158,25,1,reform,KT116,Nő,2001,13,2021-05-13_08h56.38.601,ranlexdec,2020.2.5,Win32,60
,,,,,,,,,,,,right,1.181315,0,159,159,133,1,hübrisz,KT116,Nő,2001,13,2021-05-13_08h56.38.601,ranlexdec,2020.2.5,Win32,60
,,,,,,,,,,,,right,2.171805,0,160,160,60,1,bárányfark,KT116,Nő,2001,13,2021-05-13_08h56.38.601,ranlexdec,2020.2.5,Win32,60
,,,,,,,,,,,,right,0.95995,0,161,161,176,1,bélyeg,KT116,Nő,2001,13,2021-05-13_08h56.38.601,ranlexdec,2020.2.5,Win32,60
,,,,,,,,,,,,left,1.015695,0,162,162,5,1,retta,KT116,Nő,2001,13,2021-05-13_08h56.38.601,ranlexdec,2020.2.5,Win32,60
,,,,,,,,,,,,right,0.800925,0,163,163,45,1,népszerű,KT116,Nő,2001,13,2021-05-13_08h56.38.601,ranlexdec,2020.2.5,Win32,60
,,,,,,,,,,,,left,2.536255,0,164,164,65,1,infimum,KT116,Nő,2001,13,2021-05-13_08h56.38.601,ranlexdec,2020.2.5,Win32,60
,,,,,,,,,,,,right,1.935075,0,165,165,121,1,aggófű,KT116,Nő,2001,13,2021-05-13_08h56.38.601,ranlexdec,2020.2.5,Win32,60
,,,,,,,,,,,,right,1.38816,0,166,166,70,1,lakotthely,KT116,Nő,2001,13,2021-05-13_08h56.38.601,ranlexdec,2020.2.5,Win32,60
,,,,,,,,,,,,right,0.717235,0,167,167,58,1,barát,KT116,Nő,2001,13,2021-05-13_08h56.38.601,ranlexdec,2020.2.5,Win32,60
,,,,,,,,,,,,right,0.93209,0,168,168,140,1,diktátor,KT116,Nő,2001,13,2021-05-13_08h56.38.601,ranlexdec,2020.2.5,Win32,60
,,,,,,,,,,,,right,0.68101,0,169,169,9,1,hajlik,KT116,Nő,2001,13,2021-05-13_08h56.38.601,ranlexdec,2020.2.5,Win32,60
,,,,,,,,,,,,right,1.16677,0,170,170,143,1,rojtoz,KT116,Nő,2001,13,2021-05-13_08h56.38.601,ranlexdec,2020.2.5,Win32,60
,,,,,,,,,,,,left,1.31103,0,171,171,186,1,piláf,KT116,Nő,2001,13,2021-05-13_08h56.38.601,ranlexdec,2020.2.5,Win32,60
,,,,,,,,,,,,right,0.698475,0,172,172,61,1,régész,KT116,Nő,2001,13,2021-05-13_08h56.38.601,ranlexdec,2020.2.5,Win32,60
,,,,,,,,,,,,right,1.46319,0,173,173,175,1,szilikát,KT116,Nő,2001,13,2021-05-13_08h56.38.601,ranlexdec,2020.2.5,Win32,60
,,,,,,,,,,,,right,0.83528,0,174,174,221,1,törődik,KT116,Nő,2001,13,2021-05-13_08h56.38.601,ranlexdec,2020.2.5,Win32,60
,,,,,,,,,,,,right,0.83218,0,175,175,120,1,komál,KT116,Nő,2001,13,2021-05-13_08h56.38.601,ranlexdec,2020.2.5,Win32,60
,,,,,,,,,,,,right,0.788125,0,176,176,98,1,mítosz,KT116,Nő,2001,13,2021-05-13_08h56.38.601,ranlexdec,2020.2.5,Win32,60
,,,,,,,,,,,,right,0.86216,0,177,177,160,1,százalék,KT116,Nő,2001,13,2021-05-13_08h56.38.601,ranlexdec,2020.2.5,Win32,60
,,,,,,,,,,,,right,1.11561,0,178,178,174,1,cianid,KT116,Nő,2001,13,2021-05-13_08h56.38.601,ranlexdec,2020.2.5,Win32,60
,,,,,,,,,,,,right,1.119305,0,179,179,111,1,koenzim,KT116,Nő,2001,13,2021-05-13_08h56.38.601,ranlexdec,2020.2.5,Win32,60
,,,,,,,,,,,,right,1.200755,0,180,180,165,1,lépték,KT116,Nő,2001,13,2021-05-13_08h56.38.601,ranlexdec,2020.2.5,Win32,60
,,,,,,,,,,,,left,1.798125,0,181,181,71,1,extuál,KT116,Nő,2001,13,2021-05-13_08h56.38.601,ranlexdec,2020.2.5,Win32,60
,,,,,,,,,,,,left,3.81066,0,182,182,107,1,kelől,KT116,Nő,2001,13,2021-05-13_08h56.38.601,ranlexdec,2020.2.5,Win32,60
,,,,,,,,,,,,right,1.598055,0,183,183,180,1,adszorbens,KT116,Nő,2001,13,2021-05-13_08h56.38.601,ranlexdec,2020.2.5,Win32,60
,,,,,,,,,,,,left,2.660865,0,184,184,137,1,aragas,KT116,Nő,2001,13,2021-05-13_08h56.38.601,ranlexdec,2020.2.5,Win32,60
,,,,,,,,,,,,left,2.75103,0,185,185,125,1,úszamos,KT116,Nő,2001,13,2021-05-13_08h56.38.601,ranlexdec,2020.2.5,Win32,60
,,,,,,,,,,,,right,1.12043,0,186,186,89,1,szokik,KT116,Nő,2001,13,2021-05-13_08h56.38.601,ranlexdec,2020.2.5,Win32,60
,,,,,,,,,,,,right,0.648995,0,187,187,184,1,profit,KT116,Nő,2001,13,2021-05-13_08h56.38.601,ranlexdec,2020.2.5,Win32,60
,,,,,,,,,,,,right,1.19934,0,188,188,182,1,nagyszámú,KT116,Nő,2001,13,2021-05-13_08h56.38.601,ranlexdec,2020.2.5,Win32,60
,,,,,,,,,,,,right,0.68644,0,189,189,159,1,elegy,KT116,Nő,2001,13,2021-05-13_08h56.38.601,ranlexdec,2020.2.5,Win32,60
,,,,,,,,,,,,left,1.827125,0,190,190,82,1,kvéker,KT116,Nő,2001,13,2021-05-13_08h56.38.601,ranlexdec,2020.2.5,Win32,60
,,,,,,,,,,,,right,0.715565,0,191,191,41,1,nagybeteg,KT116,Nő,2001,13,2021-05-13_08h56.38.601,ranlexdec,2020.2.5,Win32,60
,,,,,,,,,,,,right,0.755245,0,192,192,190,1,rámáz,KT116,Nő,2001,13,2021-05-13_08h56.38.601,ranlexdec,2020.2.5,Win32,60
,,,,,,,,,,,,left,2.35588,0,193,193,112,1,méhezter,KT116,Nő,2001,13,2021-05-13_08h56.38.601,ranlexdec,2020.2.5,Win32,60
,,,,,,,,,,,,right,2.81972,0,194,194,215,1,neoprén,KT116,Nő,2001,13,2021-05-13_08h56.38.601,ranlexdec,2020.2.5,Win32,60
,,,,,,,,,,,,left,1.985195,0,195,195,1,1,csapdáz,KT116,Nő,2001,13,2021-05-13_08h56.38.601,ranlexdec,2020.2.5,Win32,60
,,,,,,,,,,,,right,0.86327,0,196,196,154,1,keresztény,KT116,Nő,2001,13,2021-05-13_08h56.38.601,ranlexdec,2020.2.5,Win32,60
,,,,,,,,,,,,right,0.788935,0,197,197,245,1,ellenfél,KT116,Nő,2001,13,2021-05-13_08h56.38.601,ranlexdec,2020.2.5,Win32,60
,,,,,,,,,,,,left,1.72669,0,198,198,173,1,glosszáz,KT116,Nő,2001,13,2021-05-13_08h56.38.601,ranlexdec,2020.2.5,Win32,60
,,,,,,,,,,,,left,2.4849,0,199,199,181,1,dohorpák,KT116,Nő,2001,13,2021-05-13_08h56.38.601,ranlexdec,2020.2.5,Win32,60
,,,,,,,,,,,,right,0.835645,0,200,200,21,1,heveny,KT116,Nő,2001,13,2021-05-13_08h56.38.601,ranlexdec,2020.2.5,Win32,60
,,,,,,,,,,,,right,0.868365,0,201,201,248,1,örmény,KT116,Nő,2001,13,2021-05-13_08h56.38.601,ranlexdec,2020.2.5,Win32,60
,,,,,,,,,,,,right,0.652295,0,202,202,28,1,gazdag,KT116,Nő,2001,13,2021-05-13_08h56.38.601,ranlexdec,2020.2.5,Win32,60
,,,,,,,,,,,,left,1.5348,0,203,203,219,1,szimboló,KT116,Nő,2001,13,2021-05-13_08h56.38.601,ranlexdec,2020.2.5,Win32,60
,,,,,,,,,,,,right,0.968945,0,204,204,220,1,csontdarab,KT116,Nő,2001,13,2021-05-13_08h56.38.601,ranlexdec,2020.2.5,Win32,60
,,,,,,,,,,,,right,1.502165,0,205,205,152,1,rakódik,KT116,Nő,2001,13,2021-05-13_08h56.38.601,ranlexdec,2020.2.5,Win32,60
,,,,,,,,,,,,left,2.035585,0,206,206,163,1,kollapszus,KT116,Nő,2001,13,2021-05-13_08h56.38.601,ranlexdec,2020.2.5,Win32,60
,,,,,,,,,,,,right,1.56926,0,207,207,100,1,balközép,KT116,Nő,2001,13,2021-05-13_08h56.38.601,ranlexdec,2020.2.5,Win32,60
,,,,,,,,,,,,right,0.852495,0,208,208,39,1,könnyelmű,KT116,Nő,2001,13,2021-05-13_08h56.38.601,ranlexdec,2020.2.5,Win32,60
,,,,,,,,,,,,right,3.855215,0,209,209,106,1,lalláz,KT116,Nő,2001,13,2021-05-13_08h56.38.601,ranlexdec,2020.2.5,Win32,60
,,,,,,,,,,,,right,1.299995,0,210,210,211,1,tábornagy,KT116,Nő,2001,13,2021-05-13_08h56.38.601,ranlexdec,2020.2.5,Win32,60
,,,,,,,,,,,,right,1.8325,0,211,211,4,1,viszonvád,KT116,Nő,2001,13,2021-05-13_08h56.38.601,ranlexdec,2020.2.5,Win32,60
,,,,,,,,,,,,right,0.875875,0,212,212,90,1,orális,KT116,Nő,2001,13,2021-05-13_08h56.38.601,ranlexdec,2020.2.5,Win32,60
,,,,,,,,,,,,left,1.28219,0,213,213,40,1,diviz,KT116,Nő,2001,13,2021-05-13_08h56.38.601,ranlexdec,2020.2.5,Win32,60
,,,,,,,,,,,,right,0.58115,0,214,214,80,1,darab,KT116,Nő,2001,13,2021-05-13_08h56.38.601,ranlexdec,2020.2.5,Win32,60
,,,,,,,,,,,,right,0.91014,0,215,215,232,1,tropikus,KT116,Nő,2001,13,2021-05-13_08h56.38.601,ranlexdec,2020.2.5,Win32,60
,,,,,,,,,,,,left,4.05065,0,216,216,87,1,forrpont,KT116,Nő,2001,13,2021-05-13_08h56.38.601,ranlexdec,2020.2.5,Win32,60
,,,,,,,,,,,,right,0.818045,0,217,217,54,1,fürkész,KT116,Nő,2001,13,2021-05-13_08h56.38.601,ranlexdec,2020.2.5,Win32,60
,,,,,,,,,,,,left,2.31292,0,218,218,103,1,szabotró,KT116,Nő,2001,13,2021-05-13_08h56.38.601,ranlexdec,2020.2.5,Win32,60
,,,,,,,,,,,,right,1.343415,0,219,219,243,1,dipeptid,KT116,Nő,2001,13,2021-05-13_08h56.38.601,ranlexdec,2020.2.5,Win32,60
,,,,,,,,,,,,left,2.947905,0,220,220,38,1,zomogyi,KT116,Nő,2001,13,2021-05-13_08h56.38.601,ranlexdec,2020.2.5,Win32,60
,,,,,,,,,,,,left,2.131945,0,221,221,191,1,hitódó,KT116,Nő,2001,13,2021-05-13_08h56.38.601,ranlexdec,2020.2.5,Win32,60
,,,,,,,,,,,,right,0.805655,0,222,222,177,1,pereg,KT116,Nő,2001,13,2021-05-13_08h56.38.601,ranlexdec,2020.2.5,Win32,60
,,,,,,,,,,,,right,1.53659,0,223,223,242,1,rekvizit,KT116,Nő,2001,13,2021-05-13_08h56.38.601,ranlexdec,2020.2.5,Win32,60
,,,,,,,,,,,,right,0.839765,0,224,224,179,1,töredék,KT116,Nő,2001,13,2021-05-13_08h56.38.601,ranlexdec,2020.2.5,Win32,60
,,,,,,,,,,,,left,3.247845,0,225,225,198,1,lublika,KT116,Nő,2001,13,2021-05-13_08h56.38.601,ranlexdec,2020.2.5,Win32,60
,,,,,,,,,,,,right,0.900805,0,226,226,74,1,püffeszt,KT116,Nő,2001,13,2021-05-13_08h56.38.601,ranlexdec,2020.2.5,Win32,60
,,,,,,,,,,,,right,0.78507,0,227,227,178,1,sziszeg,KT116,Nő,2001,13,2021-05-13_08h56.38.601,ranlexdec,2020.2.5,Win32,60
,,,,,,,,,,,,right,0.65016,0,228,228,12,1,gyapot,KT116,Nő,2001,13,2021-05-13_08h56.38.601,ranlexdec,2020.2.5,Win32,60
,,,,,,,,,,,,right,0.6801,0,229,229,135,1,ion,KT116,Nő,2001,13,2021-05-13_08h56.38.601,ranlexdec,2020.2.5,Win32,60
,,,,,,,,,,,,right,0.806135,0,230,230,68,1,kitin,KT116,Nő,2001,13,2021-05-13_08h56.38.601,ranlexdec,2020.2.5,Win32,60
,,,,,,,,,,,,left,1.413705,0,231,231,233,1,templomoz,KT116,Nő,2001,13,2021-05-13_08h56.38.601,ranlexdec,2020.2.5,Win32,60
,,,,,,,,,,,,left,1.351995,0,232,232,225,1,bajadér,KT116,Nő,2001,13,2021-05-13_08h56.38.601,ranlexdec,2020.2.5,Win32,60
,,,,,,,,,,,,right,2.17387,0,233,233,240,1,áradmány,KT116,Nő,2001,13,2021-05-13_08h56.38.601,ranlexdec,2020.2.5,Win32,60
,,,,,,,,,,,,right,1.15604,0,234,234,189,1,konverzál,KT116,Nő,2001,13,2021-05-13_08h56.38.601,ranlexdec,2020.2.5,Win32,60
,,,,,,,,,,,,left,0.984065,0,235,235,218,1,tortya,KT116,Nő,2001,13,2021-05-13_08h56.38.601,ranlexdec,2020.2.5,Win32,60
,,,,,,,,,,,,left,1.49964,0,236,236,75,1,karnogó,KT116,Nő,2001,13,2021-05-13_08h56.38.601,ranlexdec,2020.2.5,Win32,60
,,,,,,,,,,,,right,0.660375,0,237,237,86,1,jármű,KT116,Nő,2001,13,2021-05-13_08h56.38.601,ranlexdec,2020.2.5,Win32,60
,,,,,,,,,,,,left,2.469135,0,238,238,197,1,krakéler,KT116,Nő,2001,13,2021-05-13_08h56.38.601,ranlexdec,2020.2.5,Win32,60
,,,,,,,,,,,,right,1.15537,0,239,239,226,1,szalicil,KT116,Nő,2001,13,2021-05-13_08h56.38.601,ranlexdec,2020.2.5,Win32,60
,,,,,,,,,,,,right,0.72716,0,240,240,194,1,végbél,KT116,Nő,2001,13,2021-05-13_08h56.38.601,ranlexdec,2020.2.5,Win32,60
,,,,,,,,,,,,left,1.470475,0,241,241,205,1,mimézis,KT116,Nő,2001,13,2021-05-13_08h56.38.601,ranlexdec,2020.2.5,Win32,60
,,,,,,,,,,,,left,3.266345,0,242,242,155,1,megpadék,KT116,Nő,2001,13,2021-05-13_08h56.38.601,ranlexdec,2020.2.5,Win32,60
,,,,,,,,,,,,right,1.418405,0,243,243,129,1,turné,KT116,Nő,2001,13,2021-05-13_08h56.38.601,ranlexdec,2020.2.5,Win32,60
,,,,,,,,,,,,right,1.621055,0,244,244,95,1,skubizik,KT116,Nő,2001,13,2021-05-13_08h56.38.601,ranlexdec,2020.2.5,Win32,60
,,,,,,,,,,,,left,2.195215,0,245,245,66,1,parkkói,KT116,Nő,2001,13,2021-05-13_08h56.38.601,ranlexdec,2020.2.5,Win32,60
,,,,,,,,,,,,right,1.31688,0,246,246,128,1,csüggedez,KT116,Nő,2001,13,2021-05-13_08h56.38.601,ranlexdec,2020.2.5,Win32,60
,,,,,,,,,,,,left,1.960905,0,247,247,127,1,rozintem,KT116,Nő,2001,13,2021-05-13_08h56.38.601,ranlexdec,2020.2.5,Win32,60
,,,,,,,,,,,,right,1.72643,0,248,248,199,1,ború,KT116,Nő,2001,13,2021-05-13_08h56.38.601,ranlexdec,2020.2.5,Win32,60
,,,,,,,,,,,,left,1.485635,0,249,249,102,1,pentez,KT116,Nő,2001,13,2021-05-13_08h56.38.601,ranlexdec,2020.2.5,Win32,60
