ready2_2.keys,ready2_2.rt,ready2.keys,ready2.rt,key_resp.keys,key_resp.rt,key_resp_3.keys,key_resp_3.rt,key_resp_2.keys,key_resp_2.rt,ready3.keys,ready3.rt,resp.keys,resp.rt,withinBlock.thisRepN,withinBlock.thisTrialN,withinBlock.thisN,withinBlock.thisIndex,withinBlock.ran,word,Azonosító,Az Ön neme,Születési éve,Hány évet töltött az iskolapadban (egyetemet is beleértve),date,expName,psychopyVersion,OS,frameRate
semicolon,40.62325,semicolon,54.34584,right,1.83746,left,1.70091,left,0.601355,semicolon,18.882195,right,0.970355,0,0,0,199,1,ború,KA115,Nő,1999.07.28.,15,2021-05-14_15h44.25.250,ranlexdec,2020.2.5,Win32,60
,,,,,,,,,,,,left,1.400385,0,1,1,121,1,aggófű,KA115,Nő,1999.07.28.,15,2021-05-14_15h44.25.250,ranlexdec,2020.2.5,Win32,60
,,,,,,,,,,,,right,0.872635,0,2,2,39,1,könnyelmű,KA115,Nő,1999.07.28.,15,2021-05-14_15h44.25.250,ranlexdec,2020.2.5,Win32,60
,,,,,,,,,,,,right,0.86698,0,3,3,185,1,gyülemlik,KA115,Nő,1999.07.28.,15,2021-05-14_15h44.25.250,ranlexdec,2020.2.5,Win32,60
,,,,,,,,,,,,right,1.03482,0,4,4,149,1,anorák,KA115,Nő,1999.07.28.,15,2021-05-14_15h44.25.250,ranlexdec,2020.2.5,Win32,60
,,,,,,,,,,,,right,1.018185,0,5,5,247,1,ausztrál,KA115,Nő,1999.07.28.,15,2021-05-14_15h44.25.250,ranlexdec,2020.2.5,Win32,60
,,,,,,,,,,,,right,1.42793,0,6,6,15,1,pauzál,KA115,Nő,1999.07.28.,15,2021-05-14_15h44.25.250,ranlexdec,2020.2.5,Win32,60
,,,,,,,,,,,,left,1.469345,0,7,7,229,1,lemesség,KA115,Nő,1999.07.28.,15,2021-05-14_15h44.25.250,ranlexdec,2020.2.5,Win32,60
,,,,,,,,,,,,left,2.05266,0,8,8,204,1,kocskesi,KA115,Nő,1999.07.28.,15,2021-05-14_15h44.25.250,ranlexdec,2020.2.5,Win32,60
,,,,,,,,,,,,right,0.968695,0,9,9,54,1,fürkész,KA115,Nő,1999.07.28.,15,2021-05-14_15h44.25.250,ranlexdec,2020.2.5,Win32,60
,,,,,,,,,,,,right,0.69978,0,10,10,213,1,eszköz,KA115,Nő,1999.07.28.,15,2021-05-14_15h44.25.250,ranlexdec,2020.2.5,Win32,60
,,,,,,,,,,,,right,1.0172,0,11,11,96,1,alfél,KA115,Nő,1999.07.28.,15,2021-05-14_15h44.25.250,ranlexdec,2020.2.5,Win32,60
,,,,,,,,,,,,right,0.73649,0,12,12,31,1,iszlám,KA115,Nő,1999.07.28.,15,2021-05-14_15h44.25.250,ranlexdec,2020.2.5,Win32,60
,,,,,,,,,,,,left,1.10901,0,13,13,107,1,kelől,KA115,Nő,1999.07.28.,15,2021-05-14_15h44.25.250,ranlexdec,2020.2.5,Win32,60
,,,,,,,,,,,,right,0.811525,0,14,14,154,1,keresztény,KA115,Nő,1999.07.28.,15,2021-05-14_15h44.25.250,ranlexdec,2020.2.5,Win32,60
,,,,,,,,,,,,right,2.502115,0,15,15,183,1,színpad,KA115,Nő,1999.07.28.,15,2021-05-14_15h44.25.250,ranlexdec,2020.2.5,Win32,60
,,,,,,,,,,,,right,1.85309,0,16,16,205,1,mimézis,KA115,Nő,1999.07.28.,15,2021-05-14_15h44.25.250,ranlexdec,2020.2.5,Win32,60
,,,,,,,,,,,,right,0.66103,0,17,17,202,1,abszint,KA115,Nő,1999.07.28.,15,2021-05-14_15h44.25.250,ranlexdec,2020.2.5,Win32,60
,,,,,,,,,,,,right,0.60017,0,18,18,129,1,turné,KA115,Nő,1999.07.28.,15,2021-05-14_15h44.25.250,ranlexdec,2020.2.5,Win32,60
,,,,,,,,,,,,right,1.31987,0,19,19,160,1,százalék,KA115,Nő,1999.07.28.,15,2021-05-14_15h44.25.250,ranlexdec,2020.2.5,Win32,60
,,,,,,,,,,,,right,1.26127,0,20,20,138,1,gyűjtemény,KA115,Nő,1999.07.28.,15,2021-05-14_15h44.25.250,ranlexdec,2020.2.5,Win32,60
,,,,,,,,,,,,left,1.04626,0,21,21,127,1,rozintem,KA115,Nő,1999.07.28.,15,2021-05-14_15h44.25.250,ranlexdec,2020.2.5,Win32,60
,,,,,,,,,,,,right,1.204895,0,22,22,244,1,kislány,KA115,Nő,1999.07.28.,15,2021-05-14_15h44.25.250,ranlexdec,2020.2.5,Win32,60
,,,,,,,,,,,,right,1.224935,0,23,23,34,1,csengettyű,KA115,Nő,1999.07.28.,15,2021-05-14_15h44.25.250,ranlexdec,2020.2.5,Win32,60
,,,,,,,,,,,,left,1.47876,0,24,24,142,1,storítő,KA115,Nő,1999.07.28.,15,2021-05-14_15h44.25.250,ranlexdec,2020.2.5,Win32,60
,,,,,,,,,,,,right,0.58498,0,25,25,214,1,tenger,KA115,Nő,1999.07.28.,15,2021-05-14_15h44.25.250,ranlexdec,2020.2.5,Win32,60
,,,,,,,,,,,,right,0.39261,0,26,26,3,1,tömzsa,KA115,Nő,1999.07.28.,15,2021-05-14_15h44.25.250,ranlexdec,2020.2.5,Win32,60
,,,,,,,,,,,,right,1.560635,0,27,27,13,1,törköly,KA115,Nő,1999.07.28.,15,2021-05-14_15h44.25.250,ranlexdec,2020.2.5,Win32,60
,,,,,,,,,,,,left,1.43417,0,28,28,102,1,pentez,KA115,Nő,1999.07.28.,15,2021-05-14_15h44.25.250,ranlexdec,2020.2.5,Win32,60
,,,,,,,,,,,,left,1.08371,0,29,29,36,1,tröshet,KA115,Nő,1999.07.28.,15,2021-05-14_15h44.25.250,ranlexdec,2020.2.5,Win32,60
,,,,,,,,,,,,right,0.62012,0,30,30,188,1,sugár,KA115,Nő,1999.07.28.,15,2021-05-14_15h44.25.250,ranlexdec,2020.2.5,Win32,60
,,,,,,,,,,,,right,0.537755,0,31,31,116,1,árus,KA115,Nő,1999.07.28.,15,2021-05-14_15h44.25.250,ranlexdec,2020.2.5,Win32,60
,,,,,,,,,,,,right,0.73949,0,32,32,171,1,újgazdag,KA115,Nő,1999.07.28.,15,2021-05-14_15h44.25.250,ranlexdec,2020.2.5,Win32,60
,,,,,,,,,,,,right,0.858505,0,33,33,56,1,kanalaz,KA115,Nő,1999.07.28.,15,2021-05-14_15h44.25.250,ranlexdec,2020.2.5,Win32,60
,,,,,,,,,,,,right,0.96175,0,34,34,35,1,türemlik,KA115,Nő,1999.07.28.,15,2021-05-14_15h44.25.250,ranlexdec,2020.2.5,Win32,60
,,,,,,,,,,,,left,2.35328,0,35,35,197,1,krakéler,KA115,Nő,1999.07.28.,15,2021-05-14_15h44.25.250,ranlexdec,2020.2.5,Win32,60
,,,,,,,,,,,,right,1.067295,0,36,36,159,1,elegy,KA115,Nő,1999.07.28.,15,2021-05-14_15h44.25.250,ranlexdec,2020.2.5,Win32,60
,,,,,,,,,,,,left,2.177055,0,37,37,17,1,magmatit,KA115,Nő,1999.07.28.,15,2021-05-14_15h44.25.250,ranlexdec,2020.2.5,Win32,60
,,,,,,,,,,,,left,1.70135,0,38,38,62,1,bizmut,KA115,Nő,1999.07.28.,15,2021-05-14_15h44.25.250,ranlexdec,2020.2.5,Win32,60
,,,,,,,,,,,,right,1.32192,0,39,39,249,1,kencéz,KA115,Nő,1999.07.28.,15,2021-05-14_15h44.25.250,ranlexdec,2020.2.5,Win32,60
,,,,,,,,,,,,right,0.82127,0,40,40,113,1,piktogram,KA115,Nő,1999.07.28.,15,2021-05-14_15h44.25.250,ranlexdec,2020.2.5,Win32,60
,,,,,,,,,,,,right,0.843815,0,41,41,95,1,skubizik,KA115,Nő,1999.07.28.,15,2021-05-14_15h44.25.250,ranlexdec,2020.2.5,Win32,60
,,,,,,,,,,,,right,0.641485,0,42,42,227,1,kötődik,KA115,Nő,1999.07.28.,15,2021-05-14_15h44.25.250,ranlexdec,2020.2.5,Win32,60
,,,,,,,,,,,,right,0.85214,0,43,43,196,1,dolgozik,KA115,Nő,1999.07.28.,15,2021-05-14_15h44.25.250,ranlexdec,2020.2.5,Win32,60
,,,,,,,,,,,,right,0.87718,0,44,44,165,1,lépték,KA115,Nő,1999.07.28.,15,2021-05-14_15h44.25.250,ranlexdec,2020.2.5,Win32,60
,,,,,,,,,,,,left,1.526835,0,45,45,16,1,cséltás,KA115,Nő,1999.07.28.,15,2021-05-14_15h44.25.250,ranlexdec,2020.2.5,Win32,60
,,,,,,,,,,,,left,1.22315,0,46,46,195,1,petél,KA115,Nő,1999.07.28.,15,2021-05-14_15h44.25.250,ranlexdec,2020.2.5,Win32,60
,,,,,,,,,,,,left,1.14344,0,47,47,52,1,kunyai,KA115,Nő,1999.07.28.,15,2021-05-14_15h44.25.250,ranlexdec,2020.2.5,Win32,60
,,,,,,,,,,,,right,0.73749,0,48,48,89,1,szokik,KA115,Nő,1999.07.28.,15,2021-05-14_15h44.25.250,ranlexdec,2020.2.5,Win32,60
,,,,,,,,,,,,right,0.72191,0,49,49,120,1,komál,KA115,Nő,1999.07.28.,15,2021-05-14_15h44.25.250,ranlexdec,2020.2.5,Win32,60
,,,,,,,,,,,,right,1.00142,0,50,50,133,1,hübrisz,KA115,Nő,1999.07.28.,15,2021-05-14_15h44.25.250,ranlexdec,2020.2.5,Win32,60
,,,,,,,,,,,,right,1.35116,0,51,51,27,1,sporthorgász,KA115,Nő,1999.07.28.,15,2021-05-14_15h44.25.250,ranlexdec,2020.2.5,Win32,60
,,,,,,,,,,,,right,1.20541,0,52,52,206,1,horizont,KA115,Nő,1999.07.28.,15,2021-05-14_15h44.25.250,ranlexdec,2020.2.5,Win32,60
,,,,,,,,,,,,right,1.089905,0,53,53,37,1,lukaszt,KA115,Nő,1999.07.28.,15,2021-05-14_15h44.25.250,ranlexdec,2020.2.5,Win32,60
,,,,,,,,,,,,right,1.56571,0,54,54,128,1,csüggedez,KA115,Nő,1999.07.28.,15,2021-05-14_15h44.25.250,ranlexdec,2020.2.5,Win32,60
,,,,,,,,,,,,left,0.87546,0,55,55,111,1,koenzim,KA115,Nő,1999.07.28.,15,2021-05-14_15h44.25.250,ranlexdec,2020.2.5,Win32,60
,,,,,,,,,,,,right,1.35038,0,56,56,25,1,reform,KA115,Nő,1999.07.28.,15,2021-05-14_15h44.25.250,ranlexdec,2020.2.5,Win32,60
,,,,,,,,,,,,right,0.54423,0,57,57,24,1,kosi,KA115,Nő,1999.07.28.,15,2021-05-14_15h44.25.250,ranlexdec,2020.2.5,Win32,60
,,,,,,,,,,,,left,1.25032,0,58,58,84,1,kúpol,KA115,Nő,1999.07.28.,15,2021-05-14_15h44.25.250,ranlexdec,2020.2.5,Win32,60
,,,,,,,,,,,,right,1.167715,0,59,59,215,1,neoprén,KA115,Nő,1999.07.28.,15,2021-05-14_15h44.25.250,ranlexdec,2020.2.5,Win32,60
,,,,,,,,,,,,right,2.362285,0,60,60,212,1,farkasbab,KA115,Nő,1999.07.28.,15,2021-05-14_15h44.25.250,ranlexdec,2020.2.5,Win32,60
,,,,,,,,,,,,left,1.303555,0,61,61,243,1,dipeptid,KA115,Nő,1999.07.28.,15,2021-05-14_15h44.25.250,ranlexdec,2020.2.5,Win32,60
,,,,,,,,,,,,right,1.141395,0,62,62,57,1,lejmol,KA115,Nő,1999.07.28.,15,2021-05-14_15h44.25.250,ranlexdec,2020.2.5,Win32,60
,,,,,,,,,,,,right,1.31003,0,63,63,200,1,biliárd,KA115,Nő,1999.07.28.,15,2021-05-14_15h44.25.250,ranlexdec,2020.2.5,Win32,60
,,,,,,,,,,,,left,1.308245,0,64,64,233,1,templomoz,KA115,Nő,1999.07.28.,15,2021-05-14_15h44.25.250,ranlexdec,2020.2.5,Win32,60
,,,,,,,,,,,,left,1.866695,0,65,65,203,1,abeti,KA115,Nő,1999.07.28.,15,2021-05-14_15h44.25.250,ranlexdec,2020.2.5,Win32,60
,,,,,,,,,,,,right,1.850485,0,66,66,223,1,árstop,KA115,Nő,1999.07.28.,15,2021-05-14_15h44.25.250,ranlexdec,2020.2.5,Win32,60
,,,,,,,,,,,,right,2.35384,0,67,67,118,1,libling,KA115,Nő,1999.07.28.,15,2021-05-14_15h44.25.250,ranlexdec,2020.2.5,Win32,60
,,,,,,,,,,,,right,0.79528,0,68,68,67,1,szegény,KA115,Nő,1999.07.28.,15,2021-05-14_15h44.25.250,ranlexdec,2020.2.5,Win32,60
,,,,,,,,,,,,left,1.35703,0,69,69,198,1,lublika,KA115,Nő,1999.07.28.,15,2021-05-14_15h44.25.250,ranlexdec,2020.2.5,Win32,60
,,,,,,,,,,,,left,1.550835,0,70,70,173,1,glosszáz,KA115,Nő,1999.07.28.,15,2021-05-14_15h44.25.250,ranlexdec,2020.2.5,Win32,60
,,,,,,,,,,,,left,1.983935,0,71,71,66,1,parkkói,KA115,Nő,1999.07.28.,15,2021-05-14_15h44.25.250,ranlexdec,2020.2.5,Win32,60
,,,,,,,,,,,,right,0.938765,0,72,72,236,1,csatázik,KA115,Nő,1999.07.28.,15,2021-05-14_15h44.25.250,ranlexdec,2020.2.5,Win32,60
,,,,,,,,,,,,right,1.174305,0,73,73,4,1,viszonvád,KA115,Nő,1999.07.28.,15,2021-05-14_15h44.25.250,ranlexdec,2020.2.5,Win32,60
,,,,,,,,,,,,right,0.603845,0,74,74,45,1,népszerű,KA115,Nő,1999.07.28.,15,2021-05-14_15h44.25.250,ranlexdec,2020.2.5,Win32,60
,,,,,,,,,,,,right,1.734055,0,75,75,22,1,arzénsav,KA115,Nő,1999.07.28.,15,2021-05-14_15h44.25.250,ranlexdec,2020.2.5,Win32,60
,,,,,,,,,,,,right,1.623285,0,76,76,222,1,nyersarany,KA115,Nő,1999.07.28.,15,2021-05-14_15h44.25.250,ranlexdec,2020.2.5,Win32,60
,,,,,,,,,,,,right,0.672585,0,77,77,59,1,ómagyar,KA115,Nő,1999.07.28.,15,2021-05-14_15h44.25.250,ranlexdec,2020.2.5,Win32,60
,,,,,,,,,,,,right,0.739565,0,78,78,80,1,darab,KA115,Nő,1999.07.28.,15,2021-05-14_15h44.25.250,ranlexdec,2020.2.5,Win32,60
,,,,,,,,,,,,left,1.949775,0,79,79,239,1,donhuán,KA115,Nő,1999.07.28.,15,2021-05-14_15h44.25.250,ranlexdec,2020.2.5,Win32,60
,,,,,,,,,,,,right,0.95882,0,80,80,220,1,csontdarab,KA115,Nő,1999.07.28.,15,2021-05-14_15h44.25.250,ranlexdec,2020.2.5,Win32,60
,,,,,,,,,,,,right,1.295535,0,81,81,151,1,komplex,KA115,Nő,1999.07.28.,15,2021-05-14_15h44.25.250,ranlexdec,2020.2.5,Win32,60
,,,,,,,,,,,,left,1.467395,0,82,82,29,1,novagár,KA115,Nő,1999.07.28.,15,2021-05-14_15h44.25.250,ranlexdec,2020.2.5,Win32,60
,,,,,,,,,,,,left,0.96772,0,83,83,40,1,diviz,KA115,Nő,1999.07.28.,15,2021-05-14_15h44.25.250,ranlexdec,2020.2.5,Win32,60
,,,,,,,,,,,,left,1.574985,0,84,84,70,1,lakotthely,KA115,Nő,1999.07.28.,15,2021-05-14_15h44.25.250,ranlexdec,2020.2.5,Win32,60
,,,,,,,,,,,,right,1.51752,0,85,85,172,1,kettősfém,KA115,Nő,1999.07.28.,15,2021-05-14_15h44.25.250,ranlexdec,2020.2.5,Win32,60
,,,,,,,,,,,,left,1.962645,0,86,86,108,1,konyrúd,KA115,Nő,1999.07.28.,15,2021-05-14_15h44.25.250,ranlexdec,2020.2.5,Win32,60
,,,,,,,,,,,,right,1.032755,0,87,87,209,1,hidegház,KA115,Nő,1999.07.28.,15,2021-05-14_15h44.25.250,ranlexdec,2020.2.5,Win32,60
,,,,,,,,,,,,left,0.866435,0,88,88,192,1,norvend,KA115,Nő,1999.07.28.,15,2021-05-14_15h44.25.250,ranlexdec,2020.2.5,Win32,60
,,,,,,,,,,,,left,1.290935,0,89,89,155,1,megpadék,KA115,Nő,1999.07.28.,15,2021-05-14_15h44.25.250,ranlexdec,2020.2.5,Win32,60
,,,,,,,,,,,,right,0.688945,0,90,90,114,1,tartalom,KA115,Nő,1999.07.28.,15,2021-05-14_15h44.25.250,ranlexdec,2020.2.5,Win32,60
,,,,,,,,,,,,right,0.935085,0,91,91,217,1,ifjít,KA115,Nő,1999.07.28.,15,2021-05-14_15h44.25.250,ranlexdec,2020.2.5,Win32,60
,,,,,,,,,,,,right,1.422615,0,92,92,242,1,rekvizit,KA115,Nő,1999.07.28.,15,2021-05-14_15h44.25.250,ranlexdec,2020.2.5,Win32,60
,,,,,,,,,,,,right,0.63373,0,93,93,43,1,közhely,KA115,Nő,1999.07.28.,15,2021-05-14_15h44.25.250,ranlexdec,2020.2.5,Win32,60
,,,,,,,,,,,,right,0.75448,0,94,94,87,1,forrpont,KA115,Nő,1999.07.28.,15,2021-05-14_15h44.25.250,ranlexdec,2020.2.5,Win32,60
,,,,,,,,,,,,left,1.26155,0,95,95,82,1,kvéker,KA115,Nő,1999.07.28.,15,2021-05-14_15h44.25.250,ranlexdec,2020.2.5,Win32,60
,,,,,,,,,,,,left,1.071145,0,96,96,75,1,karnogó,KA115,Nő,1999.07.28.,15,2021-05-14_15h44.25.250,ranlexdec,2020.2.5,Win32,60
,,,,,,,,,,,,right,1.251715,0,97,97,61,1,régész,KA115,Nő,1999.07.28.,15,2021-05-14_15h44.25.250,ranlexdec,2020.2.5,Win32,60
,,,,,,,,,,,,left,1.28404,0,98,98,91,1,tajtásos,KA115,Nő,1999.07.28.,15,2021-05-14_15h44.25.250,ranlexdec,2020.2.5,Win32,60
,,,,,,,,,,,,right,1.43974,0,99,99,71,1,extuál,KA115,Nő,1999.07.28.,15,2021-05-14_15h44.25.250,ranlexdec,2020.2.5,Win32,60
,,,,,,,,,,,,right,0.66802,0,100,100,12,1,gyapot,KA115,Nő,1999.07.28.,15,2021-05-14_15h44.25.250,ranlexdec,2020.2.5,Win32,60
,,,,,,,,,,,,right,0.678455,0,101,101,98,1,mítosz,KA115,Nő,1999.07.28.,15,2021-05-14_15h44.25.250,ranlexdec,2020.2.5,Win32,60
,,,,,,,,,,,,right,0.727125,0,102,102,63,1,viszkózus,KA115,Nő,1999.07.28.,15,2021-05-14_15h44.25.250,ranlexdec,2020.2.5,Win32,60
,,,,,,,,,,,,left,1.501725,0,103,103,46,1,kurzív,KA115,Nő,1999.07.28.,15,2021-05-14_15h44.25.250,ranlexdec,2020.2.5,Win32,60
,,,,,,,,,,,,right,1.06176,0,104,104,78,1,törékeny,KA115,Nő,1999.07.28.,15,2021-05-14_15h44.25.250,ranlexdec,2020.2.5,Win32,60
,,,,,,,,,,,,right,0.805725,0,105,105,178,1,sziszeg,KA115,Nő,1999.07.28.,15,2021-05-14_15h44.25.250,ranlexdec,2020.2.5,Win32,60
,,,,,,,,,,,,right,0.6379,0,106,106,230,1,délceg,KA115,Nő,1999.07.28.,15,2021-05-14_15h44.25.250,ranlexdec,2020.2.5,Win32,60
,,,,,,,,,,,,right,0.75514,0,107,107,8,1,kulcscsont,KA115,Nő,1999.07.28.,15,2021-05-14_15h44.25.250,ranlexdec,2020.2.5,Win32,60
,,,,,,,,,,,,left,1.13388,0,108,108,163,1,kollapszus,KA115,Nő,1999.07.28.,15,2021-05-14_15h44.25.250,ranlexdec,2020.2.5,Win32,60
,,,,,,,,,,,,right,1.24446,0,109,109,238,1,bolgár,KA115,Nő,1999.07.28.,15,2021-05-14_15h44.25.250,ranlexdec,2020.2.5,Win32,60
,,,,,,,,,,,,left,1.155325,0,110,110,117,1,ószeven,KA115,Nő,1999.07.28.,15,2021-05-14_15h44.25.250,ranlexdec,2020.2.5,Win32,60
,,,,,,,,,,,,right,1.07413,0,111,111,11,1,viszkóz,KA115,Nő,1999.07.28.,15,2021-05-14_15h44.25.250,ranlexdec,2020.2.5,Win32,60
,,,,,,,,,,,,right,0.71013,0,112,112,194,1,végbél,KA115,Nő,1999.07.28.,15,2021-05-14_15h44.25.250,ranlexdec,2020.2.5,Win32,60
,,,,,,,,,,,,right,0.56868,0,113,113,246,1,beton,KA115,Nő,1999.07.28.,15,2021-05-14_15h44.25.250,ranlexdec,2020.2.5,Win32,60
,,,,,,,,,,,,left,1.360285,0,114,114,207,1,diffamál,KA115,Nő,1999.07.28.,15,2021-05-14_15h44.25.250,ranlexdec,2020.2.5,Win32,60
,,,,,,,,,,,,right,0.684535,0,115,115,176,1,bélyeg,KA115,Nő,1999.07.28.,15,2021-05-14_15h44.25.250,ranlexdec,2020.2.5,Win32,60
,,,,,,,,,,,,left,0.85009,0,116,116,174,1,cianid,KA115,Nő,1999.07.28.,15,2021-05-14_15h44.25.250,ranlexdec,2020.2.5,Win32,60
,,,,,,,,,,,,right,0.584065,0,117,117,88,1,pohár,KA115,Nő,1999.07.28.,15,2021-05-14_15h44.25.250,ranlexdec,2020.2.5,Win32,60
,,,,,,,,,,,,right,0.684915,0,118,118,74,1,püffeszt,KA115,Nő,1999.07.28.,15,2021-05-14_15h44.25.250,ranlexdec,2020.2.5,Win32,60
,,,,,,,,,,,,left,1.11807,0,119,119,81,1,takorák,KA115,Nő,1999.07.28.,15,2021-05-14_15h44.25.250,ranlexdec,2020.2.5,Win32,60
,,,,,,,,,,,,left,2.071295,0,120,120,186,1,piláf,KA115,Nő,1999.07.28.,15,2021-05-14_15h44.25.250,ranlexdec,2020.2.5,Win32,60
,,,,,,,,,,,,left,1.42453,0,121,121,109,1,vényegő,KA115,Nő,1999.07.28.,15,2021-05-14_15h44.25.250,ranlexdec,2020.2.5,Win32,60
,,,,,,,,,,,,right,1.08462,0,122,122,211,1,tábornagy,KA115,Nő,1999.07.28.,15,2021-05-14_15h44.25.250,ranlexdec,2020.2.5,Win32,60
,,,,,,,,,,,,left,1.35068,0,123,123,65,1,infimum,KA115,Nő,1999.07.28.,15,2021-05-14_15h44.25.250,ranlexdec,2020.2.5,Win32,60
,,,,,,,,,,,,right,0.673015,0,124,124,187,1,testnedv,KA115,Nő,1999.07.28.,15,2021-05-14_15h44.25.250,ranlexdec,2020.2.5,Win32,60
,,,,,,,,,,,,right,0.657925,0,125,125,144,1,rövid,KA115,Nő,1999.07.28.,15,2021-05-14_15h44.25.250,ranlexdec,2020.2.5,Win32,60
,,,,,,,,,,,,right,0.4537,0,126,126,86,1,jármű,KA115,Nő,1999.07.28.,15,2021-05-14_15h44.25.250,ranlexdec,2020.2.5,Win32,60
,,,,,,,,,,,,right,0.40171,0,127,127,157,1,káder,KA115,Nő,1999.07.28.,15,2021-05-14_15h44.25.250,ranlexdec,2020.2.5,Win32,60
,,,,,,,,,,,,right,0.46292,0,128,128,20,1,század,KA115,Nő,1999.07.28.,15,2021-05-14_15h44.25.250,ranlexdec,2020.2.5,Win32,60
,,,,,,,,,,,,right,0.406015,0,129,129,191,1,hitódó,KA115,Nő,1999.07.28.,15,2021-05-14_15h44.25.250,ranlexdec,2020.2.5,Win32,60
,,,,,,,,,,,,right,1.949965,0,130,130,69,1,gerencsér,KA115,Nő,1999.07.28.,15,2021-05-14_15h44.25.250,ranlexdec,2020.2.5,Win32,60
,,,,,,,,,,,,right,1.178485,0,131,131,115,1,fajansz,KA115,Nő,1999.07.28.,15,2021-05-14_15h44.25.250,ranlexdec,2020.2.5,Win32,60
,,,,,,,,,,,,right,1.25473,0,132,132,123,1,luftballon,KA115,Nő,1999.07.28.,15,2021-05-14_15h44.25.250,ranlexdec,2020.2.5,Win32,60
,,,,,,,,,,,,right,1.743765,0,133,133,76,1,jegedény,KA115,Nő,1999.07.28.,15,2021-05-14_15h44.25.250,ranlexdec,2020.2.5,Win32,60
,,,,,,,,,,,,right,0.84487,0,134,134,135,1,ion,KA115,Nő,1999.07.28.,15,2021-05-14_15h44.25.250,ranlexdec,2020.2.5,Win32,60
,,,,,,,,,,,,right,0.584645,0,135,135,241,1,kárpit,KA115,Nő,1999.07.28.,15,2021-05-14_15h44.25.250,ranlexdec,2020.2.5,Win32,60
,,,,,,,,,,,,left,1.79467,0,136,136,164,1,kurzivál,KA115,Nő,1999.07.28.,15,2021-05-14_15h44.25.250,ranlexdec,2020.2.5,Win32,60
,,,,,,,,,,,,right,1.301835,0,137,137,136,1,rücsök,KA115,Nő,1999.07.28.,15,2021-05-14_15h44.25.250,ranlexdec,2020.2.5,Win32,60
,,,,,,,,,,,,right,0.98962,0,138,138,101,1,nukleon,KA115,Nő,1999.07.28.,15,2021-05-14_15h44.25.250,ranlexdec,2020.2.5,Win32,60
,,,,,,,,,,,,left,1.51204,0,139,139,112,1,méhezter,KA115,Nő,1999.07.28.,15,2021-05-14_15h44.25.250,ranlexdec,2020.2.5,Win32,60
,,,,,,,,,,,,left,1.134135,0,140,140,49,1,ernyak,KA115,Nő,1999.07.28.,15,2021-05-14_15h44.25.250,ranlexdec,2020.2.5,Win32,60
,,,,,,,,,,,,left,0.81714,0,141,141,226,1,szalicil,KA115,Nő,1999.07.28.,15,2021-05-14_15h44.25.250,ranlexdec,2020.2.5,Win32,60
,,,,,,,,,,,,right,0.794315,0,142,142,19,1,tangózik,KA115,Nő,1999.07.28.,15,2021-05-14_15h44.25.250,ranlexdec,2020.2.5,Win32,60
,,,,,,,,,,,,right,0.48646,0,143,143,0,1,irány,KA115,Nő,1999.07.28.,15,2021-05-14_15h44.25.250,ranlexdec,2020.2.5,Win32,60
,,,,,,,,,,,,right,0.75105,0,144,144,240,1,áradmány,KA115,Nő,1999.07.28.,15,2021-05-14_15h44.25.250,ranlexdec,2020.2.5,Win32,60
,,,,,,,,,,,,right,0.47957,0,145,145,228,1,tarol,KA115,Nő,1999.07.28.,15,2021-05-14_15h44.25.250,ranlexdec,2020.2.5,Win32,60
,,,,,,,,,,,,right,1.044905,0,146,146,41,1,nagybeteg,KA115,Nő,1999.07.28.,15,2021-05-14_15h44.25.250,ranlexdec,2020.2.5,Win32,60
,,,,,,,,,,,,right,0.610735,0,147,147,193,1,bacon,KA115,Nő,1999.07.28.,15,2021-05-14_15h44.25.250,ranlexdec,2020.2.5,Win32,60
,,,,,,,,,,,,left,2.819875,0,148,148,131,1,vetézmés,KA115,Nő,1999.07.28.,15,2021-05-14_15h44.25.250,ranlexdec,2020.2.5,Win32,60
,,,,,,,,,,,,right,0.77219,0,149,149,208,1,lélek,KA115,Nő,1999.07.28.,15,2021-05-14_15h44.25.250,ranlexdec,2020.2.5,Win32,60
,,,,,,,,,,,,right,0.67176,0,150,150,99,1,sárgaréz,KA115,Nő,1999.07.28.,15,2021-05-14_15h44.25.250,ranlexdec,2020.2.5,Win32,60
,,,,,,,,,,,,right,0.70123,0,151,151,48,1,reagál,KA115,Nő,1999.07.28.,15,2021-05-14_15h44.25.250,ranlexdec,2020.2.5,Win32,60
,,,,,,,,,,,,right,0.767195,0,152,152,224,1,truccol,KA115,Nő,1999.07.28.,15,2021-05-14_15h44.25.250,ranlexdec,2020.2.5,Win32,60
,,,,,,,,,,,,right,1.83917,0,153,153,106,1,lalláz,KA115,Nő,1999.07.28.,15,2021-05-14_15h44.25.250,ranlexdec,2020.2.5,Win32,60
,,,,,,,,,,,,right,0.723365,0,154,154,237,1,forgórész,KA115,Nő,1999.07.28.,15,2021-05-14_15h44.25.250,ranlexdec,2020.2.5,Win32,60
,,,,,,,,,,,,left,0.879115,0,155,155,50,1,csenyei,KA115,Nő,1999.07.28.,15,2021-05-14_15h44.25.250,ranlexdec,2020.2.5,Win32,60
,,,,,,,,,,,,right,0.600955,0,156,156,79,1,extrém,KA115,Nő,1999.07.28.,15,2021-05-14_15h44.25.250,ranlexdec,2020.2.5,Win32,60
,,,,,,,,,,,,left,0.942405,0,157,157,225,1,bajadér,KA115,Nő,1999.07.28.,15,2021-05-14_15h44.25.250,ranlexdec,2020.2.5,Win32,60
,,,,,,,,,,,,right,1.038465,0,158,158,158,1,hidroxid,KA115,Nő,1999.07.28.,15,2021-05-14_15h44.25.250,ranlexdec,2020.2.5,Win32,60
,,,,,,,,,,,,left,1.01185,0,159,159,141,1,hider,KA115,Nő,1999.07.28.,15,2021-05-14_15h44.25.250,ranlexdec,2020.2.5,Win32,60
,,,,,,,,,,,,left,0.98833,0,160,160,47,1,döföl,KA115,Nő,1999.07.28.,15,2021-05-14_15h44.25.250,ranlexdec,2020.2.5,Win32,60
,,,,,,,,,,,,right,1.050625,0,161,161,175,1,szilikát,KA115,Nő,1999.07.28.,15,2021-05-14_15h44.25.250,ranlexdec,2020.2.5,Win32,60
,,,,,,,,,,,,left,1.877375,0,162,162,23,1,szelégül,KA115,Nő,1999.07.28.,15,2021-05-14_15h44.25.250,ranlexdec,2020.2.5,Win32,60
,,,,,,,,,,,,right,0.962325,0,163,163,245,1,ellenfél,KA115,Nő,1999.07.28.,15,2021-05-14_15h44.25.250,ranlexdec,2020.2.5,Win32,60
,,,,,,,,,,,,right,0.49292,0,164,164,28,1,gazdag,KA115,Nő,1999.07.28.,15,2021-05-14_15h44.25.250,ranlexdec,2020.2.5,Win32,60
,,,,,,,,,,,,right,0.483985,0,165,165,38,1,zomogyi,KA115,Nő,1999.07.28.,15,2021-05-14_15h44.25.250,ranlexdec,2020.2.5,Win32,60
,,,,,,,,,,,,right,1.617185,0,166,166,156,1,lazúroz,KA115,Nő,1999.07.28.,15,2021-05-14_15h44.25.250,ranlexdec,2020.2.5,Win32,60
,,,,,,,,,,,,right,0.51871,0,167,167,73,1,olaj,KA115,Nő,1999.07.28.,15,2021-05-14_15h44.25.250,ranlexdec,2020.2.5,Win32,60
,,,,,,,,,,,,right,1.316925,0,168,168,235,1,transzplantál,KA115,Nő,1999.07.28.,15,2021-05-14_15h44.25.250,ranlexdec,2020.2.5,Win32,60
,,,,,,,,,,,,right,0.97852,0,169,169,21,1,heveny,KA115,Nő,1999.07.28.,15,2021-05-14_15h44.25.250,ranlexdec,2020.2.5,Win32,60
,,,,,,,,,,,,left,1.13702,0,170,170,1,1,csapdáz,KA115,Nő,1999.07.28.,15,2021-05-14_15h44.25.250,ranlexdec,2020.2.5,Win32,60
,,,,,,,,,,,,left,1.55035,0,171,171,26,1,aurult,KA115,Nő,1999.07.28.,15,2021-05-14_15h44.25.250,ranlexdec,2020.2.5,Win32,60
,,,,,,,,,,,,right,0.58967,0,172,172,248,1,örmény,KA115,Nő,1999.07.28.,15,2021-05-14_15h44.25.250,ranlexdec,2020.2.5,Win32,60
,,,,,,,,,,,,right,0.821465,0,173,173,179,1,töredék,KA115,Nő,1999.07.28.,15,2021-05-14_15h44.25.250,ranlexdec,2020.2.5,Win32,60
,,,,,,,,,,,,right,0.89205,0,174,174,143,1,rojtoz,KA115,Nő,1999.07.28.,15,2021-05-14_15h44.25.250,ranlexdec,2020.2.5,Win32,60
,,,,,,,,,,,,left,0.992355,0,175,175,5,1,retta,KA115,Nő,1999.07.28.,15,2021-05-14_15h44.25.250,ranlexdec,2020.2.5,Win32,60
,,,,,,,,,,,,right,0.58435,0,176,176,201,1,szempont,KA115,Nő,1999.07.28.,15,2021-05-14_15h44.25.250,ranlexdec,2020.2.5,Win32,60
,,,,,,,,,,,,left,1.78399,0,177,177,103,1,szabotró,KA115,Nő,1999.07.28.,15,2021-05-14_15h44.25.250,ranlexdec,2020.2.5,Win32,60
,,,,,,,,,,,,right,1.01703,0,178,178,232,1,tropikus,KA115,Nő,1999.07.28.,15,2021-05-14_15h44.25.250,ranlexdec,2020.2.5,Win32,60
,,,,,,,,,,,,left,1.572405,0,179,179,139,1,vároló,KA115,Nő,1999.07.28.,15,2021-05-14_15h44.25.250,ranlexdec,2020.2.5,Win32,60
,,,,,,,,,,,,right,0.93943,0,180,180,152,1,rakódik,KA115,Nő,1999.07.28.,15,2021-05-14_15h44.25.250,ranlexdec,2020.2.5,Win32,60
,,,,,,,,,,,,right,0.558135,0,181,181,150,1,orront,KA115,Nő,1999.07.28.,15,2021-05-14_15h44.25.250,ranlexdec,2020.2.5,Win32,60
,,,,,,,,,,,,right,0.78482,0,182,182,6,1,csüggeszt,KA115,Nő,1999.07.28.,15,2021-05-14_15h44.25.250,ranlexdec,2020.2.5,Win32,60
,,,,,,,,,,,,right,0.622145,0,183,183,55,1,látszik,KA115,Nő,1999.07.28.,15,2021-05-14_15h44.25.250,ranlexdec,2020.2.5,Win32,60
,,,,,,,,,,,,right,0.700695,0,184,184,58,1,barát,KA115,Nő,1999.07.28.,15,2021-05-14_15h44.25.250,ranlexdec,2020.2.5,Win32,60
,,,,,,,,,,,,left,1.067435,0,185,185,134,1,móringol,KA115,Nő,1999.07.28.,15,2021-05-14_15h44.25.250,ranlexdec,2020.2.5,Win32,60
,,,,,,,,,,,,left,0.93453,0,186,186,234,1,fertilis,KA115,Nő,1999.07.28.,15,2021-05-14_15h44.25.250,ranlexdec,2020.2.5,Win32,60
,,,,,,,,,,,,left,4.26848,0,187,187,42,1,összalaj,KA115,Nő,1999.07.28.,15,2021-05-14_15h44.25.250,ranlexdec,2020.2.5,Win32,60
,,,,,,,,,,,,right,0.87864,0,188,188,132,1,hatalom,KA115,Nő,1999.07.28.,15,2021-05-14_15h44.25.250,ranlexdec,2020.2.5,Win32,60
,,,,,,,,,,,,right,1.15528,0,189,189,9,1,hajlik,KA115,Nő,1999.07.28.,15,2021-05-14_15h44.25.250,ranlexdec,2020.2.5,Win32,60
,,,,,,,,,,,,right,0.78474,0,190,190,210,1,karakter,KA115,Nő,1999.07.28.,15,2021-05-14_15h44.25.250,ranlexdec,2020.2.5,Win32,60
,,,,,,,,,,,,left,1.6599,0,191,191,72,1,mihálóz,KA115,Nő,1999.07.28.,15,2021-05-14_15h44.25.250,ranlexdec,2020.2.5,Win32,60
,,,,,,,,,,,,left,3.01739,0,192,192,190,1,rámáz,KA115,Nő,1999.07.28.,15,2021-05-14_15h44.25.250,ranlexdec,2020.2.5,Win32,60
,,,,,,,,,,,,left,1.495145,0,193,193,181,1,dohorpák,KA115,Nő,1999.07.28.,15,2021-05-14_15h44.25.250,ranlexdec,2020.2.5,Win32,60
,,,,,,,,,,,,right,1.453555,0,194,194,18,1,csapattest,KA115,Nő,1999.07.28.,15,2021-05-14_15h44.25.250,ranlexdec,2020.2.5,Win32,60
,,,,,,,,,,,,right,1.501785,0,195,195,51,1,bajuszfű,KA115,Nő,1999.07.28.,15,2021-05-14_15h44.25.250,ranlexdec,2020.2.5,Win32,60
,,,,,,,,,,,,left,1.10826,0,196,196,167,1,vabank,KA115,Nő,1999.07.28.,15,2021-05-14_15h44.25.250,ranlexdec,2020.2.5,Win32,60
,,,,,,,,,,,,right,1.33888,0,197,197,147,1,referál,KA115,Nő,1999.07.28.,15,2021-05-14_15h44.25.250,ranlexdec,2020.2.5,Win32,60
,,,,,,,,,,,,left,0.81709,0,198,198,83,1,vonzum,KA115,Nő,1999.07.28.,15,2021-05-14_15h44.25.250,ranlexdec,2020.2.5,Win32,60
,,,,,,,,,,,,right,1.21752,0,199,199,162,1,nimbus,KA115,Nő,1999.07.28.,15,2021-05-14_15h44.25.250,ranlexdec,2020.2.5,Win32,60
,,,,,,,,,,,,left,0.987615,0,200,200,137,1,aragas,KA115,Nő,1999.07.28.,15,2021-05-14_15h44.25.250,ranlexdec,2020.2.5,Win32,60
,,,,,,,,,,,,right,0.8782,0,201,201,140,1,diktátor,KA115,Nő,1999.07.28.,15,2021-05-14_15h44.25.250,ranlexdec,2020.2.5,Win32,60
,,,,,,,,,,,,right,1.24546,0,202,202,44,1,ingváll,KA115,Nő,1999.07.28.,15,2021-05-14_15h44.25.250,ranlexdec,2020.2.5,Win32,60
,,,,,,,,,,,,left,1.29454,0,203,203,180,1,adszorbens,KA115,Nő,1999.07.28.,15,2021-05-14_15h44.25.250,ranlexdec,2020.2.5,Win32,60
,,,,,,,,,,,,left,2.373335,0,204,204,166,1,retálhit,KA115,Nő,1999.07.28.,15,2021-05-14_15h44.25.250,ranlexdec,2020.2.5,Win32,60
,,,,,,,,,,,,left,1.40984,0,205,205,145,1,kurtít,KA115,Nő,1999.07.28.,15,2021-05-14_15h44.25.250,ranlexdec,2020.2.5,Win32,60
,,,,,,,,,,,,right,1.204345,0,206,206,168,1,grafikon,KA115,Nő,1999.07.28.,15,2021-05-14_15h44.25.250,ranlexdec,2020.2.5,Win32,60
,,,,,,,,,,,,right,1.10234,0,207,207,146,1,kondenzcsík,KA115,Nő,1999.07.28.,15,2021-05-14_15h44.25.250,ranlexdec,2020.2.5,Win32,60
,,,,,,,,,,,,right,2.229065,0,208,208,189,1,konverzál,KA115,Nő,1999.07.28.,15,2021-05-14_15h44.25.250,ranlexdec,2020.2.5,Win32,60
,,,,,,,,,,,,left,1.774685,0,209,209,125,1,úszamos,KA115,Nő,1999.07.28.,15,2021-05-14_15h44.25.250,ranlexdec,2020.2.5,Win32,60
,,,,,,,,,,,,left,1.090655,0,210,210,30,1,dádá,KA115,Nő,1999.07.28.,15,2021-05-14_15h44.25.250,ranlexdec,2020.2.5,Win32,60
,,,,,,,,,,,,left,1.883635,0,211,211,153,1,kontrapunkt,KA115,Nő,1999.07.28.,15,2021-05-14_15h44.25.250,ranlexdec,2020.2.5,Win32,60
,,,,,,,,,,,,right,0.8665,0,212,212,148,1,mellényzseb,KA115,Nő,1999.07.28.,15,2021-05-14_15h44.25.250,ranlexdec,2020.2.5,Win32,60
,,,,,,,,,,,,right,0.712595,0,213,213,231,1,igény,KA115,Nő,1999.07.28.,15,2021-05-14_15h44.25.250,ranlexdec,2020.2.5,Win32,60
,,,,,,,,,,,,right,0.60684,0,214,214,221,1,törődik,KA115,Nő,1999.07.28.,15,2021-05-14_15h44.25.250,ranlexdec,2020.2.5,Win32,60
,,,,,,,,,,,,right,0.601315,0,215,215,126,1,rejtőzik,KA115,Nő,1999.07.28.,15,2021-05-14_15h44.25.250,ranlexdec,2020.2.5,Win32,60
,,,,,,,,,,,,right,0.44294,0,216,216,218,1,tortya,KA115,Nő,1999.07.28.,15,2021-05-14_15h44.25.250,ranlexdec,2020.2.5,Win32,60
,,,,,,,,,,,,right,0.83581,0,217,217,7,1,űrlap,KA115,Nő,1999.07.28.,15,2021-05-14_15h44.25.250,ranlexdec,2020.2.5,Win32,60
,,,,,,,,,,,,right,0.69246,0,218,218,100,1,balközép,KA115,Nő,1999.07.28.,15,2021-05-14_15h44.25.250,ranlexdec,2020.2.5,Win32,60
,,,,,,,,,,,,right,0.750595,0,219,219,64,1,hálózsák,KA115,Nő,1999.07.28.,15,2021-05-14_15h44.25.250,ranlexdec,2020.2.5,Win32,60
,,,,,,,,,,,,left,0.68356,0,220,220,32,1,genom,KA115,Nő,1999.07.28.,15,2021-05-14_15h44.25.250,ranlexdec,2020.2.5,Win32,60
,,,,,,,,,,,,right,0.71026,0,221,221,182,1,nagyszámú,KA115,Nő,1999.07.28.,15,2021-05-14_15h44.25.250,ranlexdec,2020.2.5,Win32,60
,,,,,,,,,,,,right,0.733525,0,222,222,130,1,derít,KA115,Nő,1999.07.28.,15,2021-05-14_15h44.25.250,ranlexdec,2020.2.5,Win32,60
,,,,,,,,,,,,right,0.48449,0,223,223,68,1,kitin,KA115,Nő,1999.07.28.,15,2021-05-14_15h44.25.250,ranlexdec,2020.2.5,Win32,60
,,,,,,,,,,,,right,1.20029,0,224,224,53,1,puritán,KA115,Nő,1999.07.28.,15,2021-05-14_15h44.25.250,ranlexdec,2020.2.5,Win32,60
,,,,,,,,,,,,right,0.724145,0,225,225,85,1,glükóz,KA115,Nő,1999.07.28.,15,2021-05-14_15h44.25.250,ranlexdec,2020.2.5,Win32,60
,,,,,,,,,,,,left,0.85778,0,226,226,77,1,egant,KA115,Nő,1999.07.28.,15,2021-05-14_15h44.25.250,ranlexdec,2020.2.5,Win32,60
,,,,,,,,,,,,left,0.88365,0,227,227,93,1,kilukát,KA115,Nő,1999.07.28.,15,2021-05-14_15h44.25.250,ranlexdec,2020.2.5,Win32,60
,,,,,,,,,,,,right,1.144975,0,228,228,94,1,rotor,KA115,Nő,1999.07.28.,15,2021-05-14_15h44.25.250,ranlexdec,2020.2.5,Win32,60
,,,,,,,,,,,,right,0.750345,0,229,229,124,1,alkalom,KA115,Nő,1999.07.28.,15,2021-05-14_15h44.25.250,ranlexdec,2020.2.5,Win32,60
,,,,,,,,,,,,right,0.577785,0,230,230,170,1,változik,KA115,Nő,1999.07.28.,15,2021-05-14_15h44.25.250,ranlexdec,2020.2.5,Win32,60
,,,,,,,,,,,,left,1.26123,0,231,231,97,1,vésségi,KA115,Nő,1999.07.28.,15,2021-05-14_15h44.25.250,ranlexdec,2020.2.5,Win32,60
,,,,,,,,,,,,right,0.816445,0,232,232,161,1,példakép,KA115,Nő,1999.07.28.,15,2021-05-14_15h44.25.250,ranlexdec,2020.2.5,Win32,60
,,,,,,,,,,,,right,0.63849,0,233,233,219,1,szimboló,KA115,Nő,1999.07.28.,15,2021-05-14_15h44.25.250,ranlexdec,2020.2.5,Win32,60
,,,,,,,,,,,,right,0.855795,0,234,234,14,1,selypít,KA115,Nő,1999.07.28.,15,2021-05-14_15h44.25.250,ranlexdec,2020.2.5,Win32,60
,,,,,,,,,,,,right,0.82558,0,235,235,110,1,időszak,KA115,Nő,1999.07.28.,15,2021-05-14_15h44.25.250,ranlexdec,2020.2.5,Win32,60
,,,,,,,,,,,,right,1.08426,0,236,236,122,1,égitest,KA115,Nő,1999.07.28.,15,2021-05-14_15h44.25.250,ranlexdec,2020.2.5,Win32,60
,,,,,,,,,,,,right,0.56162,0,237,237,169,1,komoly,KA115,Nő,1999.07.28.,15,2021-05-14_15h44.25.250,ranlexdec,2020.2.5,Win32,60
,,,,,,,,,,,,right,0.98359,0,238,238,33,1,kalcium,KA115,Nő,1999.07.28.,15,2021-05-14_15h44.25.250,ranlexdec,2020.2.5,Win32,60
,,,,,,,,,,,,right,1.40149,0,239,239,60,1,bárányfark,KA115,Nő,1999.07.28.,15,2021-05-14_15h44.25.250,ranlexdec,2020.2.5,Win32,60
,,,,,,,,,,,,right,0.82774,0,240,240,184,1,profit,KA115,Nő,1999.07.28.,15,2021-05-14_15h44.25.250,ranlexdec,2020.2.5,Win32,60
,,,,,,,,,,,,right,0.542355,0,241,241,90,1,orális,KA115,Nő,1999.07.28.,15,2021-05-14_15h44.25.250,ranlexdec,2020.2.5,Win32,60
,,,,,,,,,,,,right,0.55395,0,242,242,105,1,tököl,KA115,Nő,1999.07.28.,15,2021-05-14_15h44.25.250,ranlexdec,2020.2.5,Win32,60
,,,,,,,,,,,,right,0.526455,0,243,243,104,1,dolog,KA115,Nő,1999.07.28.,15,2021-05-14_15h44.25.250,ranlexdec,2020.2.5,Win32,60
,,,,,,,,,,,,right,1.101055,0,244,244,216,1,svábtök,KA115,Nő,1999.07.28.,15,2021-05-14_15h44.25.250,ranlexdec,2020.2.5,Win32,60
,,,,,,,,,,,,left,0.937635,0,245,245,2,1,gyásos,KA115,Nő,1999.07.28.,15,2021-05-14_15h44.25.250,ranlexdec,2020.2.5,Win32,60
,,,,,,,,,,,,right,0.783115,0,246,246,177,1,pereg,KA115,Nő,1999.07.28.,15,2021-05-14_15h44.25.250,ranlexdec,2020.2.5,Win32,60
,,,,,,,,,,,,right,0.77068,0,247,247,10,1,nárcisz,KA115,Nő,1999.07.28.,15,2021-05-14_15h44.25.250,ranlexdec,2020.2.5,Win32,60
,,,,,,,,,,,,left,0.93377,0,248,248,119,1,cugehőr,KA115,Nő,1999.07.28.,15,2021-05-14_15h44.25.250,ranlexdec,2020.2.5,Win32,60
,,,,,,,,,,,,right,1.739265,0,249,249,92,1,lágyék,KA115,Nő,1999.07.28.,15,2021-05-14_15h44.25.250,ranlexdec,2020.2.5,Win32,60
