ready2_2.keys,ready2_2.rt,ready2.keys,ready2.rt,key_resp.keys,key_resp.rt,key_resp_3.keys,key_resp_3.rt,key_resp_2.keys,key_resp_2.rt,ready3.keys,ready3.rt,resp.keys,resp.rt,withinBlock.thisRepN,withinBlock.thisTrialN,withinBlock.thisN,withinBlock.thisIndex,withinBlock.ran,word,Azonosító,Az Ön neme,Születési éve,Hány évet töltött az iskolapadban (egyetemet is beleértve),date,expName,psychopyVersion,OS,frameRate
space,29.648525,space,27.24008,right,1.02194,left,0.974255,left,1.291005,right,9.98923,right,1.51513,0,0,0,149,1,anorák,KT106,Nő,2000,13,2021-05-13_09h21.27.834,ranlexdec,2020.2.5,Win32,60
,,,,,,,,,,,,right,0.8293,0,1,1,85,1,glükóz,KT106,Nő,2000,13,2021-05-13_09h21.27.834,ranlexdec,2020.2.5,Win32,60
,,,,,,,,,,,,right,0.711745,0,2,2,135,1,ion,KT106,Nő,2000,13,2021-05-13_09h21.27.834,ranlexdec,2020.2.5,Win32,60
,,,,,,,,,,,,left,1.37682,0,3,3,239,1,donhuán,KT106,Nő,2000,13,2021-05-13_09h21.27.834,ranlexdec,2020.2.5,Win32,60
,,,,,,,,,,,,right,0.8781,0,4,4,68,1,kitin,KT106,Nő,2000,13,2021-05-13_09h21.27.834,ranlexdec,2020.2.5,Win32,60
,,,,,,,,,,,,right,0.81205,0,5,5,74,1,püffeszt,KT106,Nő,2000,13,2021-05-13_09h21.27.834,ranlexdec,2020.2.5,Win32,60
,,,,,,,,,,,,left,1.08294,0,6,6,127,1,rozintem,KT106,Nő,2000,13,2021-05-13_09h21.27.834,ranlexdec,2020.2.5,Win32,60
,,,,,,,,,,,,right,1.04958,0,7,7,34,1,csengettyű,KT106,Nő,2000,13,2021-05-13_09h21.27.834,ranlexdec,2020.2.5,Win32,60
,,,,,,,,,,,,right,0.751115,0,8,8,179,1,töredék,KT106,Nő,2000,13,2021-05-13_09h21.27.834,ranlexdec,2020.2.5,Win32,60
,,,,,,,,,,,,left,0.78335,0,9,9,162,1,nimbus,KT106,Nő,2000,13,2021-05-13_09h21.27.834,ranlexdec,2020.2.5,Win32,60
,,,,,,,,,,,,left,1.483235,0,10,10,223,1,árstop,KT106,Nő,2000,13,2021-05-13_09h21.27.834,ranlexdec,2020.2.5,Win32,60
,,,,,,,,,,,,left,1.05085,0,11,11,191,1,hitódó,KT106,Nő,2000,13,2021-05-13_09h21.27.834,ranlexdec,2020.2.5,Win32,60
,,,,,,,,,,,,left,1.28268,0,12,12,195,1,petél,KT106,Nő,2000,13,2021-05-13_09h21.27.834,ranlexdec,2020.2.5,Win32,60
,,,,,,,,,,,,right,1.3647,0,13,13,146,1,kondenzcsík,KT106,Nő,2000,13,2021-05-13_09h21.27.834,ranlexdec,2020.2.5,Win32,60
,,,,,,,,,,,,left,1.54977,0,14,14,4,1,viszonvád,KT106,Nő,2000,13,2021-05-13_09h21.27.834,ranlexdec,2020.2.5,Win32,60
,,,,,,,,,,,,left,1.64914,0,15,15,50,1,csenyei,KT106,Nő,2000,13,2021-05-13_09h21.27.834,ranlexdec,2020.2.5,Win32,60
,,,,,,,,,,,,right,0.865665,0,16,16,43,1,közhely,KT106,Nő,2000,13,2021-05-13_09h21.27.834,ranlexdec,2020.2.5,Win32,60
,,,,,,,,,,,,right,0.628385,0,17,17,86,1,jármű,KT106,Nő,2000,13,2021-05-13_09h21.27.834,ranlexdec,2020.2.5,Win32,60
,,,,,,,,,,,,right,0.71134,0,18,18,221,1,törődik,KT106,Nő,2000,13,2021-05-13_09h21.27.834,ranlexdec,2020.2.5,Win32,60
,,,,,,,,,,,,right,0.80233,0,19,19,241,1,kárpit,KT106,Nő,2000,13,2021-05-13_09h21.27.834,ranlexdec,2020.2.5,Win32,60
,,,,,,,,,,,,right,0.57822,0,20,20,214,1,tenger,KT106,Nő,2000,13,2021-05-13_09h21.27.834,ranlexdec,2020.2.5,Win32,60
,,,,,,,,,,,,right,1.26406,0,21,21,150,1,orront,KT106,Nő,2000,13,2021-05-13_09h21.27.834,ranlexdec,2020.2.5,Win32,60
,,,,,,,,,,,,left,0.775685,0,22,22,83,1,vonzum,KT106,Nő,2000,13,2021-05-13_09h21.27.834,ranlexdec,2020.2.5,Win32,60
,,,,,,,,,,,,right,1.53587,0,23,23,189,1,konverzál,KT106,Nő,2000,13,2021-05-13_09h21.27.834,ranlexdec,2020.2.5,Win32,60
,,,,,,,,,,,,right,0.880885,0,24,24,177,1,pereg,KT106,Nő,2000,13,2021-05-13_09h21.27.834,ranlexdec,2020.2.5,Win32,60
,,,,,,,,,,,,right,0.94672,0,25,25,53,1,puritán,KT106,Nő,2000,13,2021-05-13_09h21.27.834,ranlexdec,2020.2.5,Win32,60
,,,,,,,,,,,,right,1.6772,0,26,26,123,1,luftballon,KT106,Nő,2000,13,2021-05-13_09h21.27.834,ranlexdec,2020.2.5,Win32,60
,,,,,,,,,,,,left,0.833505,0,27,27,5,1,retta,KT106,Nő,2000,13,2021-05-13_09h21.27.834,ranlexdec,2020.2.5,Win32,60
,,,,,,,,,,,,left,0.92837,0,28,28,212,1,farkasbab,KT106,Nő,2000,13,2021-05-13_09h21.27.834,ranlexdec,2020.2.5,Win32,60
,,,,,,,,,,,,right,1.31252,0,29,29,100,1,balközép,KT106,Nő,2000,13,2021-05-13_09h21.27.834,ranlexdec,2020.2.5,Win32,60
,,,,,,,,,,,,left,0.895605,0,30,30,102,1,pentez,KT106,Nő,2000,13,2021-05-13_09h21.27.834,ranlexdec,2020.2.5,Win32,60
,,,,,,,,,,,,right,1.195045,0,31,31,19,1,tangózik,KT106,Nő,2000,13,2021-05-13_09h21.27.834,ranlexdec,2020.2.5,Win32,60
,,,,,,,,,,,,left,1.15325,0,32,32,96,1,alfél,KT106,Nő,2000,13,2021-05-13_09h21.27.834,ranlexdec,2020.2.5,Win32,60
,,,,,,,,,,,,right,0.765535,0,33,33,55,1,látszik,KT106,Nő,2000,13,2021-05-13_09h21.27.834,ranlexdec,2020.2.5,Win32,60
,,,,,,,,,,,,left,0.89901,0,34,34,224,1,truccol,KT106,Nő,2000,13,2021-05-13_09h21.27.834,ranlexdec,2020.2.5,Win32,60
,,,,,,,,,,,,right,1.13668,0,35,35,113,1,piktogram,KT106,Nő,2000,13,2021-05-13_09h21.27.834,ranlexdec,2020.2.5,Win32,60
,,,,,,,,,,,,left,0.955115,0,36,36,125,1,úszamos,KT106,Nő,2000,13,2021-05-13_09h21.27.834,ranlexdec,2020.2.5,Win32,60
,,,,,,,,,,,,right,0.740405,0,37,37,245,1,ellenfél,KT106,Nő,2000,13,2021-05-13_09h21.27.834,ranlexdec,2020.2.5,Win32,60
,,,,,,,,,,,,right,1.066985,0,38,38,59,1,ómagyar,KT106,Nő,2000,13,2021-05-13_09h21.27.834,ranlexdec,2020.2.5,Win32,60
,,,,,,,,,,,,left,0.75223,0,39,39,52,1,kunyai,KT106,Nő,2000,13,2021-05-13_09h21.27.834,ranlexdec,2020.2.5,Win32,60
,,,,,,,,,,,,right,0.709465,0,40,40,222,1,nyersarany,KT106,Nő,2000,13,2021-05-13_09h21.27.834,ranlexdec,2020.2.5,Win32,60
,,,,,,,,,,,,right,0.715595,0,41,41,7,1,űrlap,KT106,Nő,2000,13,2021-05-13_09h21.27.834,ranlexdec,2020.2.5,Win32,60
,,,,,,,,,,,,left,0.93201,0,42,42,233,1,templomoz,KT106,Nő,2000,13,2021-05-13_09h21.27.834,ranlexdec,2020.2.5,Win32,60
,,,,,,,,,,,,left,0.99196,0,43,43,137,1,aragas,KT106,Nő,2000,13,2021-05-13_09h21.27.834,ranlexdec,2020.2.5,Win32,60
,,,,,,,,,,,,right,1.707715,0,44,44,60,1,bárányfark,KT106,Nő,2000,13,2021-05-13_09h21.27.834,ranlexdec,2020.2.5,Win32,60
,,,,,,,,,,,,left,0.85623,0,45,45,29,1,novagár,KT106,Nő,2000,13,2021-05-13_09h21.27.834,ranlexdec,2020.2.5,Win32,60
,,,,,,,,,,,,left,1.08523,0,46,46,155,1,megpadék,KT106,Nő,2000,13,2021-05-13_09h21.27.834,ranlexdec,2020.2.5,Win32,60
,,,,,,,,,,,,left,0.90209,0,47,47,16,1,cséltás,KT106,Nő,2000,13,2021-05-13_09h21.27.834,ranlexdec,2020.2.5,Win32,60
,,,,,,,,,,,,left,0.53558,0,48,48,174,1,cianid,KT106,Nő,2000,13,2021-05-13_09h21.27.834,ranlexdec,2020.2.5,Win32,60
,,,,,,,,,,,,left,0.95208,0,49,49,75,1,karnogó,KT106,Nő,2000,13,2021-05-13_09h21.27.834,ranlexdec,2020.2.5,Win32,60
,,,,,,,,,,,,right,0.687485,0,50,50,154,1,keresztény,KT106,Nő,2000,13,2021-05-13_09h21.27.834,ranlexdec,2020.2.5,Win32,60
,,,,,,,,,,,,right,0.65233,0,51,51,9,1,hajlik,KT106,Nő,2000,13,2021-05-13_09h21.27.834,ranlexdec,2020.2.5,Win32,60
,,,,,,,,,,,,left,0.733335,0,52,52,203,1,abeti,KT106,Nő,2000,13,2021-05-13_09h21.27.834,ranlexdec,2020.2.5,Win32,60
,,,,,,,,,,,,left,0.7078,0,53,53,77,1,egant,KT106,Nő,2000,13,2021-05-13_09h21.27.834,ranlexdec,2020.2.5,Win32,60
,,,,,,,,,,,,right,0.867195,0,54,54,63,1,viszkózus,KT106,Nő,2000,13,2021-05-13_09h21.27.834,ranlexdec,2020.2.5,Win32,60
,,,,,,,,,,,,left,0.783385,0,55,55,186,1,piláf,KT106,Nő,2000,13,2021-05-13_09h21.27.834,ranlexdec,2020.2.5,Win32,60
,,,,,,,,,,,,right,0.801065,0,56,56,200,1,biliárd,KT106,Nő,2000,13,2021-05-13_09h21.27.834,ranlexdec,2020.2.5,Win32,60
,,,,,,,,,,,,right,0.592065,0,57,57,208,1,lélek,KT106,Nő,2000,13,2021-05-13_09h21.27.834,ranlexdec,2020.2.5,Win32,60
,,,,,,,,,,,,right,0.49051,0,58,58,88,1,pohár,KT106,Nő,2000,13,2021-05-13_09h21.27.834,ranlexdec,2020.2.5,Win32,60
,,,,,,,,,,,,right,0.687755,0,59,59,13,1,törköly,KT106,Nő,2000,13,2021-05-13_09h21.27.834,ranlexdec,2020.2.5,Win32,60
,,,,,,,,,,,,left,1.19401,0,60,60,112,1,méhezter,KT106,Nő,2000,13,2021-05-13_09h21.27.834,ranlexdec,2020.2.5,Win32,60
,,,,,,,,,,,,left,0.79779,0,61,61,117,1,ószeven,KT106,Nő,2000,13,2021-05-13_09h21.27.834,ranlexdec,2020.2.5,Win32,60
,,,,,,,,,,,,right,0.79621,0,62,62,39,1,könnyelmű,KT106,Nő,2000,13,2021-05-13_09h21.27.834,ranlexdec,2020.2.5,Win32,60
,,,,,,,,,,,,right,0.61185,0,63,63,176,1,bélyeg,KT106,Nő,2000,13,2021-05-13_09h21.27.834,ranlexdec,2020.2.5,Win32,60
,,,,,,,,,,,,left,0.997185,0,64,64,242,1,rekvizit,KT106,Nő,2000,13,2021-05-13_09h21.27.834,ranlexdec,2020.2.5,Win32,60
,,,,,,,,,,,,left,0.764695,0,65,65,198,1,lublika,KT106,Nő,2000,13,2021-05-13_09h21.27.834,ranlexdec,2020.2.5,Win32,60
,,,,,,,,,,,,right,1.30192,0,66,66,238,1,bolgár,KT106,Nő,2000,13,2021-05-13_09h21.27.834,ranlexdec,2020.2.5,Win32,60
,,,,,,,,,,,,right,0.727515,0,67,67,159,1,elegy,KT106,Nő,2000,13,2021-05-13_09h21.27.834,ranlexdec,2020.2.5,Win32,60
,,,,,,,,,,,,right,0.874035,0,68,68,249,1,kencéz,KT106,Nő,2000,13,2021-05-13_09h21.27.834,ranlexdec,2020.2.5,Win32,60
,,,,,,,,,,,,right,0.64476,0,69,69,54,1,fürkész,KT106,Nő,2000,13,2021-05-13_09h21.27.834,ranlexdec,2020.2.5,Win32,60
,,,,,,,,,,,,right,0.56276,0,70,70,227,1,kötődik,KT106,Nő,2000,13,2021-05-13_09h21.27.834,ranlexdec,2020.2.5,Win32,60
,,,,,,,,,,,,right,0.53181,0,71,71,196,1,dolgozik,KT106,Nő,2000,13,2021-05-13_09h21.27.834,ranlexdec,2020.2.5,Win32,60
,,,,,,,,,,,,left,1.05203,0,72,72,237,1,forgórész,KT106,Nő,2000,13,2021-05-13_09h21.27.834,ranlexdec,2020.2.5,Win32,60
,,,,,,,,,,,,left,1.262175,0,73,73,105,1,tököl,KT106,Nő,2000,13,2021-05-13_09h21.27.834,ranlexdec,2020.2.5,Win32,60
,,,,,,,,,,,,right,0.788235,0,74,74,169,1,komoly,KT106,Nő,2000,13,2021-05-13_09h21.27.834,ranlexdec,2020.2.5,Win32,60
,,,,,,,,,,,,right,0.930545,0,75,75,129,1,turné,KT106,Nő,2000,13,2021-05-13_09h21.27.834,ranlexdec,2020.2.5,Win32,60
,,,,,,,,,,,,right,1.01364,0,76,76,11,1,viszkóz,KT106,Nő,2000,13,2021-05-13_09h21.27.834,ranlexdec,2020.2.5,Win32,60
,,,,,,,,,,,,right,0.531545,0,77,77,210,1,karakter,KT106,Nő,2000,13,2021-05-13_09h21.27.834,ranlexdec,2020.2.5,Win32,60
,,,,,,,,,,,,left,0.964285,0,78,78,229,1,lemesség,KT106,Nő,2000,13,2021-05-13_09h21.27.834,ranlexdec,2020.2.5,Win32,60
,,,,,,,,,,,,left,0.777585,0,79,79,3,1,tömzsa,KT106,Nő,2000,13,2021-05-13_09h21.27.834,ranlexdec,2020.2.5,Win32,60
,,,,,,,,,,,,right,0.64638,0,80,80,126,1,rejtőzik,KT106,Nő,2000,13,2021-05-13_09h21.27.834,ranlexdec,2020.2.5,Win32,60
,,,,,,,,,,,,left,1.3922,0,81,81,76,1,jegedény,KT106,Nő,2000,13,2021-05-13_09h21.27.834,ranlexdec,2020.2.5,Win32,60
,,,,,,,,,,,,right,0.984785,0,82,82,182,1,nagyszámú,KT106,Nő,2000,13,2021-05-13_09h21.27.834,ranlexdec,2020.2.5,Win32,60
,,,,,,,,,,,,left,0.780045,0,83,83,134,1,móringol,KT106,Nő,2000,13,2021-05-13_09h21.27.834,ranlexdec,2020.2.5,Win32,60
,,,,,,,,,,,,right,0.828425,0,84,84,120,1,komál,KT106,Nő,2000,13,2021-05-13_09h21.27.834,ranlexdec,2020.2.5,Win32,60
,,,,,,,,,,,,right,1.83512,0,85,85,240,1,áradmány,KT106,Nő,2000,13,2021-05-13_09h21.27.834,ranlexdec,2020.2.5,Win32,60
,,,,,,,,,,,,right,0.676905,0,86,86,231,1,igény,KT106,Nő,2000,13,2021-05-13_09h21.27.834,ranlexdec,2020.2.5,Win32,60
,,,,,,,,,,,,left,0.96556,0,87,87,109,1,vényegő,KT106,Nő,2000,13,2021-05-13_09h21.27.834,ranlexdec,2020.2.5,Win32,60
,,,,,,,,,,,,right,0.717825,0,88,88,236,1,csatázik,KT106,Nő,2000,13,2021-05-13_09h21.27.834,ranlexdec,2020.2.5,Win32,60
,,,,,,,,,,,,right,0.722725,0,89,89,206,1,horizont,KT106,Nő,2000,13,2021-05-13_09h21.27.834,ranlexdec,2020.2.5,Win32,60
,,,,,,,,,,,,right,0.78415,0,90,90,33,1,kalcium,KT106,Nő,2000,13,2021-05-13_09h21.27.834,ranlexdec,2020.2.5,Win32,60
,,,,,,,,,,,,right,0.9672,0,91,91,133,1,hübrisz,KT106,Nő,2000,13,2021-05-13_09h21.27.834,ranlexdec,2020.2.5,Win32,60
,,,,,,,,,,,,left,1.03283,0,92,92,219,1,szimboló,KT106,Nő,2000,13,2021-05-13_09h21.27.834,ranlexdec,2020.2.5,Win32,60
,,,,,,,,,,,,left,0.81037,0,93,93,36,1,tröshet,KT106,Nő,2000,13,2021-05-13_09h21.27.834,ranlexdec,2020.2.5,Win32,60
,,,,,,,,,,,,left,0.63256,0,94,94,166,1,retálhit,KT106,Nő,2000,13,2021-05-13_09h21.27.834,ranlexdec,2020.2.5,Win32,60
,,,,,,,,,,,,left,0.75006,0,95,95,204,1,kocskesi,KT106,Nő,2000,13,2021-05-13_09h21.27.834,ranlexdec,2020.2.5,Win32,60
,,,,,,,,,,,,right,1.0589,0,96,96,111,1,koenzim,KT106,Nő,2000,13,2021-05-13_09h21.27.834,ranlexdec,2020.2.5,Win32,60
,,,,,,,,,,,,right,0.74908,0,97,97,188,1,sugár,KT106,Nő,2000,13,2021-05-13_09h21.27.834,ranlexdec,2020.2.5,Win32,60
,,,,,,,,,,,,right,0.835755,0,98,98,114,1,tartalom,KT106,Nő,2000,13,2021-05-13_09h21.27.834,ranlexdec,2020.2.5,Win32,60
,,,,,,,,,,,,left,0.869745,0,99,99,136,1,rücsök,KT106,Nő,2000,13,2021-05-13_09h21.27.834,ranlexdec,2020.2.5,Win32,60
,,,,,,,,,,,,right,0.84874,0,100,100,32,1,genom,KT106,Nő,2000,13,2021-05-13_09h21.27.834,ranlexdec,2020.2.5,Win32,60
,,,,,,,,,,,,left,0.985835,0,101,101,164,1,kurzivál,KT106,Nő,2000,13,2021-05-13_09h21.27.834,ranlexdec,2020.2.5,Win32,60
,,,,,,,,,,,,right,0.7724,0,102,102,38,1,zomogyi,KT106,Nő,2000,13,2021-05-13_09h21.27.834,ranlexdec,2020.2.5,Win32,60
,,,,,,,,,,,,right,0.788835,0,103,103,90,1,orális,KT106,Nő,2000,13,2021-05-13_09h21.27.834,ranlexdec,2020.2.5,Win32,60
,,,,,,,,,,,,right,0.67569,0,104,104,25,1,reform,KT106,Nő,2000,13,2021-05-13_09h21.27.834,ranlexdec,2020.2.5,Win32,60
,,,,,,,,,,,,right,1.11631,0,105,105,145,1,kurtít,KT106,Nő,2000,13,2021-05-13_09h21.27.834,ranlexdec,2020.2.5,Win32,60
,,,,,,,,,,,,right,0.56707,0,106,106,80,1,darab,KT106,Nő,2000,13,2021-05-13_09h21.27.834,ranlexdec,2020.2.5,Win32,60
,,,,,,,,,,,,right,1.81901,0,107,107,235,1,transzplantál,KT106,Nő,2000,13,2021-05-13_09h21.27.834,ranlexdec,2020.2.5,Win32,60
,,,,,,,,,,,,left,0.85647,0,108,108,69,1,gerencsér,KT106,Nő,2000,13,2021-05-13_09h21.27.834,ranlexdec,2020.2.5,Win32,60
,,,,,,,,,,,,right,0.90832,0,109,109,37,1,lukaszt,KT106,Nő,2000,13,2021-05-13_09h21.27.834,ranlexdec,2020.2.5,Win32,60
,,,,,,,,,,,,left,0.702845,0,110,110,173,1,glosszáz,KT106,Nő,2000,13,2021-05-13_09h21.27.834,ranlexdec,2020.2.5,Win32,60
,,,,,,,,,,,,right,0.76284,0,111,111,161,1,példakép,KT106,Nő,2000,13,2021-05-13_09h21.27.834,ranlexdec,2020.2.5,Win32,60
,,,,,,,,,,,,left,1.585795,0,112,112,217,1,ifjít,KT106,Nő,2000,13,2021-05-13_09h21.27.834,ranlexdec,2020.2.5,Win32,60
,,,,,,,,,,,,left,1.55342,0,113,113,157,1,káder,KT106,Nő,2000,13,2021-05-13_09h21.27.834,ranlexdec,2020.2.5,Win32,60
,,,,,,,,,,,,right,0.954305,0,114,114,226,1,szalicil,KT106,Nő,2000,13,2021-05-13_09h21.27.834,ranlexdec,2020.2.5,Win32,60
,,,,,,,,,,,,right,0.701505,0,115,115,101,1,nukleon,KT106,Nő,2000,13,2021-05-13_09h21.27.834,ranlexdec,2020.2.5,Win32,60
,,,,,,,,,,,,right,0.708835,0,116,116,73,1,olaj,KT106,Nő,2000,13,2021-05-13_09h21.27.834,ranlexdec,2020.2.5,Win32,60
,,,,,,,,,,,,right,1.11318,0,117,117,171,1,újgazdag,KT106,Nő,2000,13,2021-05-13_09h21.27.834,ranlexdec,2020.2.5,Win32,60
,,,,,,,,,,,,right,0.68504,0,118,118,168,1,grafikon,KT106,Nő,2000,13,2021-05-13_09h21.27.834,ranlexdec,2020.2.5,Win32,60
,,,,,,,,,,,,right,0.858915,0,119,119,62,1,bizmut,KT106,Nő,2000,13,2021-05-13_09h21.27.834,ranlexdec,2020.2.5,Win32,60
,,,,,,,,,,,,right,0.65314,0,120,120,218,1,tortya,KT106,Nő,2000,13,2021-05-13_09h21.27.834,ranlexdec,2020.2.5,Win32,60
,,,,,,,,,,,,right,1.266155,0,121,121,209,1,hidegház,KT106,Nő,2000,13,2021-05-13_09h21.27.834,ranlexdec,2020.2.5,Win32,60
,,,,,,,,,,,,right,1.251255,0,122,122,57,1,lejmol,KT106,Nő,2000,13,2021-05-13_09h21.27.834,ranlexdec,2020.2.5,Win32,60
,,,,,,,,,,,,right,0.56763,0,123,123,124,1,alkalom,KT106,Nő,2000,13,2021-05-13_09h21.27.834,ranlexdec,2020.2.5,Win32,60
,,,,,,,,,,,,right,0.60167,0,124,124,170,1,változik,KT106,Nő,2000,13,2021-05-13_09h21.27.834,ranlexdec,2020.2.5,Win32,60
,,,,,,,,,,,,right,0.69942,0,125,125,79,1,extrém,KT106,Nő,2000,13,2021-05-13_09h21.27.834,ranlexdec,2020.2.5,Win32,60
,,,,,,,,,,,,right,0.60117,0,126,126,67,1,szegény,KT106,Nő,2000,13,2021-05-13_09h21.27.834,ranlexdec,2020.2.5,Win32,60
,,,,,,,,,,,,right,0.748265,0,127,127,185,1,gyülemlik,KT106,Nő,2000,13,2021-05-13_09h21.27.834,ranlexdec,2020.2.5,Win32,60
,,,,,,,,,,,,left,1.622915,0,128,128,91,1,tajtásos,KT106,Nő,2000,13,2021-05-13_09h21.27.834,ranlexdec,2020.2.5,Win32,60
,,,,,,,,,,,,left,0.887805,0,129,129,108,1,konyrúd,KT106,Nő,2000,13,2021-05-13_09h21.27.834,ranlexdec,2020.2.5,Win32,60
,,,,,,,,,,,,left,0.870395,0,130,130,51,1,bajuszfű,KT106,Nő,2000,13,2021-05-13_09h21.27.834,ranlexdec,2020.2.5,Win32,60
,,,,,,,,,,,,left,0.9349,0,131,131,65,1,infimum,KT106,Nő,2000,13,2021-05-13_09h21.27.834,ranlexdec,2020.2.5,Win32,60
,,,,,,,,,,,,right,0.70753,0,132,132,78,1,törékeny,KT106,Nő,2000,13,2021-05-13_09h21.27.834,ranlexdec,2020.2.5,Win32,60
,,,,,,,,,,,,left,0.80075,0,133,133,243,1,dipeptid,KT106,Nő,2000,13,2021-05-13_09h21.27.834,ranlexdec,2020.2.5,Win32,60
,,,,,,,,,,,,left,2.347535,0,134,134,35,1,türemlik,KT106,Nő,2000,13,2021-05-13_09h21.27.834,ranlexdec,2020.2.5,Win32,60
,,,,,,,,,,,,left,0.817025,0,135,135,66,1,parkkói,KT106,Nő,2000,13,2021-05-13_09h21.27.834,ranlexdec,2020.2.5,Win32,60
,,,,,,,,,,,,left,0.75172,0,136,136,216,1,svábtök,KT106,Nő,2000,13,2021-05-13_09h21.27.834,ranlexdec,2020.2.5,Win32,60
,,,,,,,,,,,,right,0.81905,0,137,137,220,1,csontdarab,KT106,Nő,2000,13,2021-05-13_09h21.27.834,ranlexdec,2020.2.5,Win32,60
,,,,,,,,,,,,right,0.618515,0,138,138,28,1,gazdag,KT106,Nő,2000,13,2021-05-13_09h21.27.834,ranlexdec,2020.2.5,Win32,60
,,,,,,,,,,,,left,0.775595,0,139,139,97,1,vésségi,KT106,Nő,2000,13,2021-05-13_09h21.27.834,ranlexdec,2020.2.5,Win32,60
,,,,,,,,,,,,right,1.364595,0,140,140,147,1,referál,KT106,Nő,2000,13,2021-05-13_09h21.27.834,ranlexdec,2020.2.5,Win32,60
,,,,,,,,,,,,right,0.68965,0,141,141,14,1,selypít,KT106,Nő,2000,13,2021-05-13_09h21.27.834,ranlexdec,2020.2.5,Win32,60
,,,,,,,,,,,,right,0.646415,0,142,142,6,1,csüggeszt,KT106,Nő,2000,13,2021-05-13_09h21.27.834,ranlexdec,2020.2.5,Win32,60
,,,,,,,,,,,,left,0.825545,0,143,143,163,1,kollapszus,KT106,Nő,2000,13,2021-05-13_09h21.27.834,ranlexdec,2020.2.5,Win32,60
,,,,,,,,,,,,left,1.0623,0,144,144,42,1,összalaj,KT106,Nő,2000,13,2021-05-13_09h21.27.834,ranlexdec,2020.2.5,Win32,60
,,,,,,,,,,,,left,0.89687,0,145,145,180,1,adszorbens,KT106,Nő,2000,13,2021-05-13_09h21.27.834,ranlexdec,2020.2.5,Win32,60
,,,,,,,,,,,,right,0.80861,0,146,146,140,1,diktátor,KT106,Nő,2000,13,2021-05-13_09h21.27.834,ranlexdec,2020.2.5,Win32,60
,,,,,,,,,,,,left,1.523285,0,147,147,1,1,csapdáz,KT106,Nő,2000,13,2021-05-13_09h21.27.834,ranlexdec,2020.2.5,Win32,60
,,,,,,,,,,,,right,0.745875,0,148,148,61,1,régész,KT106,Nő,2000,13,2021-05-13_09h21.27.834,ranlexdec,2020.2.5,Win32,60
,,,,,,,,,,,,left,0.7496,0,149,149,106,1,lalláz,KT106,Nő,2000,13,2021-05-13_09h21.27.834,ranlexdec,2020.2.5,Win32,60
,,,,,,,,,,,,left,1.06216,0,150,150,94,1,rotor,KT106,Nő,2000,13,2021-05-13_09h21.27.834,ranlexdec,2020.2.5,Win32,60
,,,,,,,,,,,,left,2.894815,0,151,151,89,1,szokik,KT106,Nő,2000,13,2021-05-13_09h21.27.834,ranlexdec,2020.2.5,Win32,60
,,,,,,,,,,,,right,1.31287,0,152,152,27,1,sporthorgász,KT106,Nő,2000,13,2021-05-13_09h21.27.834,ranlexdec,2020.2.5,Win32,60
,,,,,,,,,,,,right,0.709555,0,153,153,228,1,tarol,KT106,Nő,2000,13,2021-05-13_09h21.27.834,ranlexdec,2020.2.5,Win32,60
,,,,,,,,,,,,right,0.53055,0,154,154,0,1,irány,KT106,Nő,2000,13,2021-05-13_09h21.27.834,ranlexdec,2020.2.5,Win32,60
,,,,,,,,,,,,left,0.857445,0,155,155,103,1,szabotró,KT106,Nő,2000,13,2021-05-13_09h21.27.834,ranlexdec,2020.2.5,Win32,60
,,,,,,,,,,,,right,0.696465,0,156,156,213,1,eszköz,KT106,Nő,2000,13,2021-05-13_09h21.27.834,ranlexdec,2020.2.5,Win32,60
,,,,,,,,,,,,left,1.51513,0,157,157,141,1,hider,KT106,Nő,2000,13,2021-05-13_09h21.27.834,ranlexdec,2020.2.5,Win32,60
,,,,,,,,,,,,right,0.81393,0,158,158,10,1,nárcisz,KT106,Nő,2000,13,2021-05-13_09h21.27.834,ranlexdec,2020.2.5,Win32,60
,,,,,,,,,,,,left,0.970885,0,159,159,24,1,kosi,KT106,Nő,2000,13,2021-05-13_09h21.27.834,ranlexdec,2020.2.5,Win32,60
,,,,,,,,,,,,left,0.917565,0,160,160,205,1,mimézis,KT106,Nő,2000,13,2021-05-13_09h21.27.834,ranlexdec,2020.2.5,Win32,60
,,,,,,,,,,,,left,0.95673,0,161,161,128,1,csüggedez,KT106,Nő,2000,13,2021-05-13_09h21.27.834,ranlexdec,2020.2.5,Win32,60
,,,,,,,,,,,,right,0.666385,0,162,162,246,1,beton,KT106,Nő,2000,13,2021-05-13_09h21.27.834,ranlexdec,2020.2.5,Win32,60
,,,,,,,,,,,,right,0.612785,0,163,163,151,1,komplex,KT106,Nő,2000,13,2021-05-13_09h21.27.834,ranlexdec,2020.2.5,Win32,60
,,,,,,,,,,,,right,1.06242,0,164,164,202,1,abszint,KT106,Nő,2000,13,2021-05-13_09h21.27.834,ranlexdec,2020.2.5,Win32,60
,,,,,,,,,,,,right,1.04586,0,165,165,232,1,tropikus,KT106,Nő,2000,13,2021-05-13_09h21.27.834,ranlexdec,2020.2.5,Win32,60
,,,,,,,,,,,,left,0.84838,0,166,166,107,1,kelől,KT106,Nő,2000,13,2021-05-13_09h21.27.834,ranlexdec,2020.2.5,Win32,60
,,,,,,,,,,,,right,0.94765,0,167,167,56,1,kanalaz,KT106,Nő,2000,13,2021-05-13_09h21.27.834,ranlexdec,2020.2.5,Win32,60
,,,,,,,,,,,,right,2.160175,0,168,168,190,1,rámáz,KT106,Nő,2000,13,2021-05-13_09h21.27.834,ranlexdec,2020.2.5,Win32,60
,,,,,,,,,,,,left,0.73349,0,169,169,15,1,pauzál,KT106,Nő,2000,13,2021-05-13_09h21.27.834,ranlexdec,2020.2.5,Win32,60
,,,,,,,,,,,,left,1.36111,0,170,170,131,1,vetézmés,KT106,Nő,2000,13,2021-05-13_09h21.27.834,ranlexdec,2020.2.5,Win32,60
,,,,,,,,,,,,left,0.781385,0,171,171,26,1,aurult,KT106,Nő,2000,13,2021-05-13_09h21.27.834,ranlexdec,2020.2.5,Win32,60
,,,,,,,,,,,,right,0.695575,0,172,172,247,1,ausztrál,KT106,Nő,2000,13,2021-05-13_09h21.27.834,ranlexdec,2020.2.5,Win32,60
,,,,,,,,,,,,right,0.699175,0,173,173,92,1,lágyék,KT106,Nő,2000,13,2021-05-13_09h21.27.834,ranlexdec,2020.2.5,Win32,60
,,,,,,,,,,,,right,0.63549,0,174,174,84,1,kúpol,KT106,Nő,2000,13,2021-05-13_09h21.27.834,ranlexdec,2020.2.5,Win32,60
,,,,,,,,,,,,left,0.76246,0,175,175,17,1,magmatit,KT106,Nő,2000,13,2021-05-13_09h21.27.834,ranlexdec,2020.2.5,Win32,60
,,,,,,,,,,,,right,0.71161,0,176,176,160,1,százalék,KT106,Nő,2000,13,2021-05-13_09h21.27.834,ranlexdec,2020.2.5,Win32,60
,,,,,,,,,,,,right,0.72764,0,177,177,104,1,dolog,KT106,Nő,2000,13,2021-05-13_09h21.27.834,ranlexdec,2020.2.5,Win32,60
,,,,,,,,,,,,left,0.75245,0,178,178,49,1,ernyak,KT106,Nő,2000,13,2021-05-13_09h21.27.834,ranlexdec,2020.2.5,Win32,60
,,,,,,,,,,,,right,1.349445,0,179,179,234,1,fertilis,KT106,Nő,2000,13,2021-05-13_09h21.27.834,ranlexdec,2020.2.5,Win32,60
,,,,,,,,,,,,right,0.64703,0,180,180,8,1,kulcscsont,KT106,Nő,2000,13,2021-05-13_09h21.27.834,ranlexdec,2020.2.5,Win32,60
,,,,,,,,,,,,right,0.82908,0,181,181,98,1,mítosz,KT106,Nő,2000,13,2021-05-13_09h21.27.834,ranlexdec,2020.2.5,Win32,60
,,,,,,,,,,,,right,0.634585,0,182,182,45,1,népszerű,KT106,Nő,2000,13,2021-05-13_09h21.27.834,ranlexdec,2020.2.5,Win32,60
,,,,,,,,,,,,right,0.798105,0,183,183,116,1,árus,KT106,Nő,2000,13,2021-05-13_09h21.27.834,ranlexdec,2020.2.5,Win32,60
,,,,,,,,,,,,right,1.105,0,184,184,44,1,ingváll,KT106,Nő,2000,13,2021-05-13_09h21.27.834,ranlexdec,2020.2.5,Win32,60
,,,,,,,,,,,,right,0.52913,0,185,185,152,1,rakódik,KT106,Nő,2000,13,2021-05-13_09h21.27.834,ranlexdec,2020.2.5,Win32,60
,,,,,,,,,,,,left,1.24856,0,186,186,81,1,takorák,KT106,Nő,2000,13,2021-05-13_09h21.27.834,ranlexdec,2020.2.5,Win32,60
,,,,,,,,,,,,left,0.89547,0,187,187,115,1,fajansz,KT106,Nő,2000,13,2021-05-13_09h21.27.834,ranlexdec,2020.2.5,Win32,60
,,,,,,,,,,,,left,1.09494,0,188,188,215,1,neoprén,KT106,Nő,2000,13,2021-05-13_09h21.27.834,ranlexdec,2020.2.5,Win32,60
,,,,,,,,,,,,right,1.29262,0,189,189,21,1,heveny,KT106,Nő,2000,13,2021-05-13_09h21.27.834,ranlexdec,2020.2.5,Win32,60
,,,,,,,,,,,,right,0.63945,0,190,190,122,1,égitest,KT106,Nő,2000,13,2021-05-13_09h21.27.834,ranlexdec,2020.2.5,Win32,60
,,,,,,,,,,,,right,0.714865,0,191,191,30,1,dádá,KT106,Nő,2000,13,2021-05-13_09h21.27.834,ranlexdec,2020.2.5,Win32,60
,,,,,,,,,,,,left,0.81194,0,192,192,207,1,diffamál,KT106,Nő,2000,13,2021-05-13_09h21.27.834,ranlexdec,2020.2.5,Win32,60
,,,,,,,,,,,,left,2.228375,0,193,193,172,1,kettősfém,KT106,Nő,2000,13,2021-05-13_09h21.27.834,ranlexdec,2020.2.5,Win32,60
,,,,,,,,,,,,right,0.841075,0,194,194,41,1,nagybeteg,KT106,Nő,2000,13,2021-05-13_09h21.27.834,ranlexdec,2020.2.5,Win32,60
,,,,,,,,,,,,left,1.062105,0,195,195,167,1,vabank,KT106,Nő,2000,13,2021-05-13_09h21.27.834,ranlexdec,2020.2.5,Win32,60
,,,,,,,,,,,,left,1.08815,0,196,196,181,1,dohorpák,KT106,Nő,2000,13,2021-05-13_09h21.27.834,ranlexdec,2020.2.5,Win32,60
,,,,,,,,,,,,right,0.79386,0,197,197,244,1,kislány,KT106,Nő,2000,13,2021-05-13_09h21.27.834,ranlexdec,2020.2.5,Win32,60
,,,,,,,,,,,,right,0.78206,0,198,198,31,1,iszlám,KT106,Nő,2000,13,2021-05-13_09h21.27.834,ranlexdec,2020.2.5,Win32,60
,,,,,,,,,,,,right,0.746515,0,199,199,194,1,végbél,KT106,Nő,2000,13,2021-05-13_09h21.27.834,ranlexdec,2020.2.5,Win32,60
,,,,,,,,,,,,right,0.506145,0,200,200,144,1,rövid,KT106,Nő,2000,13,2021-05-13_09h21.27.834,ranlexdec,2020.2.5,Win32,60
,,,,,,,,,,,,left,0.79414,0,201,201,93,1,kilukát,KT106,Nő,2000,13,2021-05-13_09h21.27.834,ranlexdec,2020.2.5,Win32,60
,,,,,,,,,,,,right,0.811995,0,202,202,211,1,tábornagy,KT106,Nő,2000,13,2021-05-13_09h21.27.834,ranlexdec,2020.2.5,Win32,60
,,,,,,,,,,,,right,0.6844,0,203,203,132,1,hatalom,KT106,Nő,2000,13,2021-05-13_09h21.27.834,ranlexdec,2020.2.5,Win32,60
,,,,,,,,,,,,right,1.76139,0,204,204,70,1,lakotthely,KT106,Nő,2000,13,2021-05-13_09h21.27.834,ranlexdec,2020.2.5,Win32,60
,,,,,,,,,,,,left,0.97761,0,205,205,192,1,norvend,KT106,Nő,2000,13,2021-05-13_09h21.27.834,ranlexdec,2020.2.5,Win32,60
,,,,,,,,,,,,right,0.76782,0,206,206,184,1,profit,KT106,Nő,2000,13,2021-05-13_09h21.27.834,ranlexdec,2020.2.5,Win32,60
,,,,,,,,,,,,right,0.828145,0,207,207,165,1,lépték,KT106,Nő,2000,13,2021-05-13_09h21.27.834,ranlexdec,2020.2.5,Win32,60
,,,,,,,,,,,,left,0.93195,0,208,208,46,1,kurzív,KT106,Nő,2000,13,2021-05-13_09h21.27.834,ranlexdec,2020.2.5,Win32,60
,,,,,,,,,,,,right,0.77614,0,209,209,48,1,reagál,KT106,Nő,2000,13,2021-05-13_09h21.27.834,ranlexdec,2020.2.5,Win32,60
,,,,,,,,,,,,right,0.80246,0,210,210,187,1,testnedv,KT106,Nő,2000,13,2021-05-13_09h21.27.834,ranlexdec,2020.2.5,Win32,60
,,,,,,,,,,,,right,0.599715,0,211,211,58,1,barát,KT106,Nő,2000,13,2021-05-13_09h21.27.834,ranlexdec,2020.2.5,Win32,60
,,,,,,,,,,,,right,0.740075,0,212,212,20,1,század,KT106,Nő,2000,13,2021-05-13_09h21.27.834,ranlexdec,2020.2.5,Win32,60
,,,,,,,,,,,,left,0.950485,0,213,213,2,1,gyásos,KT106,Nő,2000,13,2021-05-13_09h21.27.834,ranlexdec,2020.2.5,Win32,60
,,,,,,,,,,,,right,0.659235,0,214,214,130,1,derít,KT106,Nő,2000,13,2021-05-13_09h21.27.834,ranlexdec,2020.2.5,Win32,60
,,,,,,,,,,,,left,1.16761,0,215,215,87,1,forrpont,KT106,Nő,2000,13,2021-05-13_09h21.27.834,ranlexdec,2020.2.5,Win32,60
,,,,,,,,,,,,left,0.96729,0,216,216,156,1,lazúroz,KT106,Nő,2000,13,2021-05-13_09h21.27.834,ranlexdec,2020.2.5,Win32,60
,,,,,,,,,,,,right,0.75888,0,217,217,99,1,sárgaréz,KT106,Nő,2000,13,2021-05-13_09h21.27.834,ranlexdec,2020.2.5,Win32,60
,,,,,,,,,,,,right,0.650235,0,218,218,183,1,színpad,KT106,Nő,2000,13,2021-05-13_09h21.27.834,ranlexdec,2020.2.5,Win32,60
,,,,,,,,,,,,right,0.798355,0,219,219,143,1,rojtoz,KT106,Nő,2000,13,2021-05-13_09h21.27.834,ranlexdec,2020.2.5,Win32,60
,,,,,,,,,,,,right,1.03347,0,220,220,95,1,skubizik,KT106,Nő,2000,13,2021-05-13_09h21.27.834,ranlexdec,2020.2.5,Win32,60
,,,,,,,,,,,,right,1.335795,0,221,221,22,1,arzénsav,KT106,Nő,2000,13,2021-05-13_09h21.27.834,ranlexdec,2020.2.5,Win32,60
,,,,,,,,,,,,right,1.0487,0,222,222,199,1,ború,KT106,Nő,2000,13,2021-05-13_09h21.27.834,ranlexdec,2020.2.5,Win32,60
,,,,,,,,,,,,left,0.767905,0,223,223,71,1,extuál,KT106,Nő,2000,13,2021-05-13_09h21.27.834,ranlexdec,2020.2.5,Win32,60
,,,,,,,,,,,,left,1.315535,0,224,224,23,1,szelégül,KT106,Nő,2000,13,2021-05-13_09h21.27.834,ranlexdec,2020.2.5,Win32,60
,,,,,,,,,,,,right,0.715695,0,225,225,18,1,csapattest,KT106,Nő,2000,13,2021-05-13_09h21.27.834,ranlexdec,2020.2.5,Win32,60
,,,,,,,,,,,,left,0.9181,0,226,226,142,1,storítő,KT106,Nő,2000,13,2021-05-13_09h21.27.834,ranlexdec,2020.2.5,Win32,60
,,,,,,,,,,,,right,0.71875,0,227,227,12,1,gyapot,KT106,Nő,2000,13,2021-05-13_09h21.27.834,ranlexdec,2020.2.5,Win32,60
,,,,,,,,,,,,right,1.351295,0,228,228,248,1,örmény,KT106,Nő,2000,13,2021-05-13_09h21.27.834,ranlexdec,2020.2.5,Win32,60
,,,,,,,,,,,,left,0.967035,0,229,229,121,1,aggófű,KT106,Nő,2000,13,2021-05-13_09h21.27.834,ranlexdec,2020.2.5,Win32,60
,,,,,,,,,,,,left,0.879715,0,230,230,118,1,libling,KT106,Nő,2000,13,2021-05-13_09h21.27.834,ranlexdec,2020.2.5,Win32,60
,,,,,,,,,,,,right,0.94235,0,231,231,230,1,délceg,KT106,Nő,2000,13,2021-05-13_09h21.27.834,ranlexdec,2020.2.5,Win32,60
,,,,,,,,,,,,left,1.134415,0,232,232,47,1,döföl,KT106,Nő,2000,13,2021-05-13_09h21.27.834,ranlexdec,2020.2.5,Win32,60
,,,,,,,,,,,,right,0.717545,0,233,233,201,1,szempont,KT106,Nő,2000,13,2021-05-13_09h21.27.834,ranlexdec,2020.2.5,Win32,60
,,,,,,,,,,,,right,1.202275,0,234,234,64,1,hálózsák,KT106,Nő,2000,13,2021-05-13_09h21.27.834,ranlexdec,2020.2.5,Win32,60
,,,,,,,,,,,,right,1.33187,0,235,235,138,1,gyűjtemény,KT106,Nő,2000,13,2021-05-13_09h21.27.834,ranlexdec,2020.2.5,Win32,60
,,,,,,,,,,,,left,1.8453,0,236,236,197,1,krakéler,KT106,Nő,2000,13,2021-05-13_09h21.27.834,ranlexdec,2020.2.5,Win32,60
,,,,,,,,,,,,left,0.87559,0,237,237,72,1,mihálóz,KT106,Nő,2000,13,2021-05-13_09h21.27.834,ranlexdec,2020.2.5,Win32,60
,,,,,,,,,,,,left,0.971655,0,238,238,82,1,kvéker,KT106,Nő,2000,13,2021-05-13_09h21.27.834,ranlexdec,2020.2.5,Win32,60
,,,,,,,,,,,,right,1.21279,0,239,239,193,1,bacon,KT106,Nő,2000,13,2021-05-13_09h21.27.834,ranlexdec,2020.2.5,Win32,60
,,,,,,,,,,,,right,0.55893,0,240,240,175,1,szilikát,KT106,Nő,2000,13,2021-05-13_09h21.27.834,ranlexdec,2020.2.5,Win32,60
,,,,,,,,,,,,left,0.7153,0,241,241,225,1,bajadér,KT106,Nő,2000,13,2021-05-13_09h21.27.834,ranlexdec,2020.2.5,Win32,60
,,,,,,,,,,,,right,1.31269,0,242,242,148,1,mellényzseb,KT106,Nő,2000,13,2021-05-13_09h21.27.834,ranlexdec,2020.2.5,Win32,60
,,,,,,,,,,,,right,0.86593,0,243,243,158,1,hidroxid,KT106,Nő,2000,13,2021-05-13_09h21.27.834,ranlexdec,2020.2.5,Win32,60
,,,,,,,,,,,,left,0.73808,0,244,244,119,1,cugehőr,KT106,Nő,2000,13,2021-05-13_09h21.27.834,ranlexdec,2020.2.5,Win32,60
,,,,,,,,,,,,left,0.780625,0,245,245,40,1,diviz,KT106,Nő,2000,13,2021-05-13_09h21.27.834,ranlexdec,2020.2.5,Win32,60
,,,,,,,,,,,,right,0.610405,0,246,246,110,1,időszak,KT106,Nő,2000,13,2021-05-13_09h21.27.834,ranlexdec,2020.2.5,Win32,60
,,,,,,,,,,,,right,0.676775,0,247,247,178,1,sziszeg,KT106,Nő,2000,13,2021-05-13_09h21.27.834,ranlexdec,2020.2.5,Win32,60
,,,,,,,,,,,,left,0.87957,0,248,248,139,1,vároló,KT106,Nő,2000,13,2021-05-13_09h21.27.834,ranlexdec,2020.2.5,Win32,60
,,,,,,,,,,,,left,0.946565,0,249,249,153,1,kontrapunkt,KT106,Nő,2000,13,2021-05-13_09h21.27.834,ranlexdec,2020.2.5,Win32,60
