ready2.keys,ready2.rt,key_resp.keys,key_resp.rt,key_resp_2.keys,key_resp_2.rt,ready3.keys,ready3.rt,resp.keys,resp.corr,resp.rt,within_block.thisRepN,within_block.thisTrialN,within_block.thisN,within_block.thisIndex,within_block.ran,word,difficulty,correct_answer,Azonosító,Az Ön neme,Születési éve,Hány évet töltött az iskolapadban (egyetemet is beleértve),date,expName,psychopyVersion,OS,frameRate,trials.thisRepN,trials.thisTrialN,trials.thisN,trials.thisIndex,trials.ran,block_names
space,17.193,right,2.762,left,2.521,space,14.459,right,1,1.441,0,0,0,5,1,nagy,1,right,5046,férfi,1956.08.02.,22,2020-09-27_18h42.56.456,lexdecspan,2020.1.2,MacIntel,60,,,,,,
,,,,,,,,right,1,0.702,0,1,1,9,1,kép,1,right,5046,férfi,1956.08.02.,22,2020-09-27_18h42.56.456,lexdecspan,2020.1.2,MacIntel,60,,,,,,
,,,,,,,,,,,,,,,,,,,5046,férfi,1956.08.02.,22,2020-09-27_18h42.56.456,lexdecspan,2020.1.2,MacIntel,60,0,0,0,0,1,blocks/block_1.xlsx
,,,,,,,,right,1,0.854,0,0,0,11,1,nyújt,2,right,5046,férfi,1956.08.02.,22,2020-09-27_18h42.56.456,lexdecspan,2020.1.2,MacIntel,60,,,,,,
,,,,,,,,right,1,0.733,0,1,1,6,1,darab,2,right,5046,férfi,1956.08.02.,22,2020-09-27_18h42.56.456,lexdecspan,2020.1.2,MacIntel,60,,,,,,
,,,,,,,,,,,,,,,,,,,5046,férfi,1956.08.02.,22,2020-09-27_18h42.56.456,lexdecspan,2020.1.2,MacIntel,60,0,1,1,1,1,blocks/block_2.xlsx
,,,,,,,,left,1,3.569,0,0,0,7,1,kétikussi,3,left,5046,férfi,1956.08.02.,22,2020-09-27_18h42.56.456,lexdecspan,2020.1.2,MacIntel,60,,,,,,
,,,,,,,,right,1,0.768,0,1,1,4,1,király,3,right,5046,férfi,1956.08.02.,22,2020-09-27_18h42.56.456,lexdecspan,2020.1.2,MacIntel,60,,,,,,
,,,,,,,,,,,,,,,,,,,5046,férfi,1956.08.02.,22,2020-09-27_18h42.56.456,lexdecspan,2020.1.2,MacIntel,60,0,2,2,2,1,blocks/block_3.xlsx
,,,,,,,,right,1,0.929,0,0,0,9,1,népszerű,4,right,5046,férfi,1956.08.02.,22,2020-09-27_18h42.56.456,lexdecspan,2020.1.2,MacIntel,60,,,,,,
,,,,,,,,right,1,0.592,0,1,1,14,1,párt,4,right,5046,férfi,1956.08.02.,22,2020-09-27_18h42.56.456,lexdecspan,2020.1.2,MacIntel,60,,,,,,
,,,,,,,,,,,,,,,,,,,5046,férfi,1956.08.02.,22,2020-09-27_18h42.56.456,lexdecspan,2020.1.2,MacIntel,60,0,3,3,3,1,blocks/block_4.xlsx
,,,,,,,,right,1,1.038,0,0,0,13,1,mód,5,right,5046,férfi,1956.08.02.,22,2020-09-27_18h42.56.456,lexdecspan,2020.1.2,MacIntel,60,,,,,,
,,,,,,,,right,1,0.921,0,1,1,1,1,spanyol,5,right,5046,férfi,1956.08.02.,22,2020-09-27_18h42.56.456,lexdecspan,2020.1.2,MacIntel,60,,,,,,
,,,,,,,,,,,,,,,,,,,5046,férfi,1956.08.02.,22,2020-09-27_18h42.56.456,lexdecspan,2020.1.2,MacIntel,60,0,4,4,4,1,blocks/block_5.xlsx
,,,,,,,,left,1,1.838,0,0,0,4,1,hézhet,6,left,5046,férfi,1956.08.02.,22,2020-09-27_18h42.56.456,lexdecspan,2020.1.2,MacIntel,60,,,,,,
,,,,,,,,right,1,0.651,0,1,1,5,1,üveg,6,right,5046,férfi,1956.08.02.,22,2020-09-27_18h42.56.456,lexdecspan,2020.1.2,MacIntel,60,,,,,,
,,,,,,,,,,,,,,,,,,,5046,férfi,1956.08.02.,22,2020-09-27_18h42.56.456,lexdecspan,2020.1.2,MacIntel,60,0,5,5,5,1,blocks/block_6.xlsx
,,,,,,,,right,1,1.601,0,0,0,4,1,létesítmény,7,right,5046,férfi,1956.08.02.,22,2020-09-27_18h42.56.456,lexdecspan,2020.1.2,MacIntel,60,,,,,,
,,,,,,,,right,1,0.607,0,1,1,22,1,kritikus,7,right,5046,férfi,1956.08.02.,22,2020-09-27_18h42.56.456,lexdecspan,2020.1.2,MacIntel,60,,,,,,
,,,,,,,,,,,,,,,,,,,5046,férfi,1956.08.02.,22,2020-09-27_18h42.56.456,lexdecspan,2020.1.2,MacIntel,60,0,6,6,6,1,blocks/block_7.xlsx
,,,,,,,,right,1,1.005,0,0,0,10,1,mozgalom,8,right,5046,férfi,1956.08.02.,22,2020-09-27_18h42.56.456,lexdecspan,2020.1.2,MacIntel,60,,,,,,
,,,,,,,,left,1,2.708,0,1,1,2,1,vésségi,8,left,5046,férfi,1956.08.02.,22,2020-09-27_18h42.56.456,lexdecspan,2020.1.2,MacIntel,60,,,,,,
,,,,,,,,,,,,,,,,,,,5046,férfi,1956.08.02.,22,2020-09-27_18h42.56.456,lexdecspan,2020.1.2,MacIntel,60,0,7,7,7,1,blocks/block_8.xlsx
,,,,,,,,right,0,0.959,0,0,0,10,1,vízgyűlő,9,left,5046,férfi,1956.08.02.,22,2020-09-27_18h42.56.456,lexdecspan,2020.1.2,MacIntel,60,,,,,,
,,,,,,,,left,0,3.971,0,1,1,7,1,nek,9,right,5046,férfi,1956.08.02.,22,2020-09-27_18h42.56.456,lexdecspan,2020.1.2,MacIntel,60,,,,,,
,,,,,,,,right,1,0.86,0,2,2,8,1,virág,9,right,5046,férfi,1956.08.02.,22,2020-09-27_18h42.56.456,lexdecspan,2020.1.2,MacIntel,60,,,,,,
,,,,,,,,right,1,1.2,0,3,3,21,1,gróf,9,right,5046,férfi,1956.08.02.,22,2020-09-27_18h42.56.456,lexdecspan,2020.1.2,MacIntel,60,,,,,,
,,,,,,,,,,,,,,,,,,,5046,férfi,1956.08.02.,22,2020-09-27_18h42.56.456,lexdecspan,2020.1.2,MacIntel,60,0,8,8,8,1,blocks/block_9.xlsx
,,,,,,,,left,1,2.676,0,0,0,3,1,szalas,10,left,5046,férfi,1956.08.02.,22,2020-09-27_18h42.56.456,lexdecspan,2020.1.2,MacIntel,60,,,,,,
,,,,,,,,left,1,2.662,0,1,1,20,1,hozandzsa,10,left,5046,férfi,1956.08.02.,22,2020-09-27_18h42.56.456,lexdecspan,2020.1.2,MacIntel,60,,,,,,
,,,,,,,,,,,,,,,,,,,5046,férfi,1956.08.02.,22,2020-09-27_18h42.56.456,lexdecspan,2020.1.2,MacIntel,60,0,9,9,9,1,blocks/block_10.xlsx
,,,,,,,,right,1,1.354,0,0,0,0,1,lánc,11,right,5046,férfi,1956.08.02.,22,2020-09-27_18h42.56.456,lexdecspan,2020.1.2,MacIntel,60,,,,,,
,,,,,,,,right,1,0.886,0,1,1,22,1,orr,11,right,5046,férfi,1956.08.02.,22,2020-09-27_18h42.56.456,lexdecspan,2020.1.2,MacIntel,60,,,,,,
,,,,,,,,,,,,,,,,,,,5046,férfi,1956.08.02.,22,2020-09-27_18h42.56.456,lexdecspan,2020.1.2,MacIntel,60,0,10,10,10,1,blocks/block_11.xlsx
,,,,,,,,right,1,1.61,0,0,0,19,1,bronz,12,right,5046,férfi,1956.08.02.,22,2020-09-27_18h42.56.456,lexdecspan,2020.1.2,MacIntel,60,,,,,,
,,,,,,,,right,1,0.82,0,1,1,20,1,homok,12,right,5046,férfi,1956.08.02.,22,2020-09-27_18h42.56.456,lexdecspan,2020.1.2,MacIntel,60,,,,,,
,,,,,,,,,,,,,,,,,,,5046,férfi,1956.08.02.,22,2020-09-27_18h42.56.456,lexdecspan,2020.1.2,MacIntel,60,0,11,11,11,1,blocks/block_12.xlsx
,,,,,,,,right,1,0.802,0,0,0,1,1,villany,13,right,5046,férfi,1956.08.02.,22,2020-09-27_18h42.56.456,lexdecspan,2020.1.2,MacIntel,60,,,,,,
,,,,,,,,left,1,1.331,0,1,1,7,1,boldódi,13,left,5046,férfi,1956.08.02.,22,2020-09-27_18h42.56.456,lexdecspan,2020.1.2,MacIntel,60,,,,,,
,,,,,,,,,,,,,,,,,,,5046,férfi,1956.08.02.,22,2020-09-27_18h42.56.456,lexdecspan,2020.1.2,MacIntel,60,0,12,12,12,1,blocks/block_13.xlsx
,,,,,,,,right,1,0.895,0,0,0,13,1,rejtőzik,14,right,5046,férfi,1956.08.02.,22,2020-09-27_18h42.56.456,lexdecspan,2020.1.2,MacIntel,60,,,,,,
,,,,,,,,right,1,0.943,0,1,1,18,1,had,14,right,5046,férfi,1956.08.02.,22,2020-09-27_18h42.56.456,lexdecspan,2020.1.2,MacIntel,60,,,,,,
,,,,,,,,,,,,,,,,,,,5046,férfi,1956.08.02.,22,2020-09-27_18h42.56.456,lexdecspan,2020.1.2,MacIntel,60,0,13,13,13,1,blocks/block_14.xlsx
,,,,,,,,right,1,1.427,0,0,0,21,1,háziasszony,15,right,5046,férfi,1956.08.02.,22,2020-09-27_18h42.56.456,lexdecspan,2020.1.2,MacIntel,60,,,,,,
,,,,,,,,left,1,2.359,0,1,1,9,1,pálódás,15,left,5046,férfi,1956.08.02.,22,2020-09-27_18h42.56.456,lexdecspan,2020.1.2,MacIntel,60,,,,,,
,,,,,,,,,,,,,,,,,,,5046,férfi,1956.08.02.,22,2020-09-27_18h42.56.456,lexdecspan,2020.1.2,MacIntel,60,0,14,14,14,1,blocks/block_15.xlsx
,,,,,,,,left,1,1.304,0,0,0,17,1,gyalaha,16,left,5046,férfi,1956.08.02.,22,2020-09-27_18h42.56.456,lexdecspan,2020.1.2,MacIntel,60,,,,,,
,,,,,,,,right,1,1.589,0,1,1,5,1,határidejű,16,right,5046,férfi,1956.08.02.,22,2020-09-27_18h42.56.456,lexdecspan,2020.1.2,MacIntel,60,,,,,,
,,,,,,,,,,,,,,,,,,,5046,férfi,1956.08.02.,22,2020-09-27_18h42.56.456,lexdecspan,2020.1.2,MacIntel,60,0,15,15,15,1,blocks/block_16.xlsx
,,,,,,,,right,1,1.113,0,0,0,7,1,értékesít,17,right,5046,férfi,1956.08.02.,22,2020-09-27_18h42.56.456,lexdecspan,2020.1.2,MacIntel,60,,,,,,
,,,,,,,,left,0,1.69,0,1,1,6,1,kerekedik,17,right,5046,férfi,1956.08.02.,22,2020-09-27_18h42.56.456,lexdecspan,2020.1.2,MacIntel,60,,,,,,
,,,,,,,,left,1,2.546,0,2,2,20,1,oldalmi,17,left,5046,férfi,1956.08.02.,22,2020-09-27_18h42.56.456,lexdecspan,2020.1.2,MacIntel,60,,,,,,
,,,,,,,,,,,,,,,,,,,5046,férfi,1956.08.02.,22,2020-09-27_18h42.56.456,lexdecspan,2020.1.2,MacIntel,60,0,16,16,16,1,blocks/block_17.xlsx
,,,,,,,,right,1,1.223,0,0,0,3,1,neon,18,right,5046,férfi,1956.08.02.,22,2020-09-27_18h42.56.456,lexdecspan,2020.1.2,MacIntel,60,,,,,,
,,,,,,,,right,1,1.611,0,1,1,19,1,gaz,18,right,5046,férfi,1956.08.02.,22,2020-09-27_18h42.56.456,lexdecspan,2020.1.2,MacIntel,60,,,,,,
,,,,,,,,,,,,,,,,,,,5046,férfi,1956.08.02.,22,2020-09-27_18h42.56.456,lexdecspan,2020.1.2,MacIntel,60,0,17,17,17,1,blocks/block_18.xlsx
,,,,,,,,right,1,1.776,0,0,0,2,1,genom,19,right,5046,férfi,1956.08.02.,22,2020-09-27_18h42.56.456,lexdecspan,2020.1.2,MacIntel,60,,,,,,
,,,,,,,,right,1,1.638,0,1,1,4,1,könnyelmű,19,right,5046,férfi,1956.08.02.,22,2020-09-27_18h42.56.456,lexdecspan,2020.1.2,MacIntel,60,,,,,,
,,,,,,,,,,,,,,,,,,,5046,férfi,1956.08.02.,22,2020-09-27_18h42.56.456,lexdecspan,2020.1.2,MacIntel,60,0,18,18,18,1,blocks/block_19.xlsx
,,,,,,,,right,1,4.127,0,0,0,0,1,szótag,20,right,5046,férfi,1956.08.02.,22,2020-09-27_18h42.56.456,lexdecspan,2020.1.2,MacIntel,60,,,,,,
,,,,,,,,right,1,0.877,0,1,1,21,1,őrült,20,right,5046,férfi,1956.08.02.,22,2020-09-27_18h42.56.456,lexdecspan,2020.1.2,MacIntel,60,,,,,,
,,,,,,,,,,,,,,,,,,,5046,férfi,1956.08.02.,22,2020-09-27_18h42.56.456,lexdecspan,2020.1.2,MacIntel,60,0,19,19,19,1,blocks/block_20.xlsx
,,,,,,,,right,1,1.295,0,0,0,22,1,nagydíj,21,right,5046,férfi,1956.08.02.,22,2020-09-27_18h42.56.456,lexdecspan,2020.1.2,MacIntel,60,,,,,,
,,,,,,,,right,1,2.642,0,1,1,6,1,vitamindús,21,right,5046,férfi,1956.08.02.,22,2020-09-27_18h42.56.456,lexdecspan,2020.1.2,MacIntel,60,,,,,,
,,,,,,,,,,,,,,,,,,,5046,férfi,1956.08.02.,22,2020-09-27_18h42.56.456,lexdecspan,2020.1.2,MacIntel,60,0,20,20,20,1,blocks/block_21.xlsx
,,,,,,,,right,1,4.395,0,0,0,6,1,indulatú,22,right,5046,férfi,1956.08.02.,22,2020-09-27_18h42.56.456,lexdecspan,2020.1.2,MacIntel,60,,,,,,
,,,,,,,,left,1,3.743,0,1,1,13,1,érkésztás,22,left,5046,férfi,1956.08.02.,22,2020-09-27_18h42.56.456,lexdecspan,2020.1.2,MacIntel,60,,,,,,
,,,,,,,,,,,,,,,,,,,5046,férfi,1956.08.02.,22,2020-09-27_18h42.56.456,lexdecspan,2020.1.2,MacIntel,60,0,21,21,21,1,blocks/block_22.xlsx
,,,,,,,,right,1,1.111,0,0,0,23,1,ómagyar,23,right,5046,férfi,1956.08.02.,22,2020-09-27_18h42.56.456,lexdecspan,2020.1.2,MacIntel,60,,,,,,
,,,,,,,,right,1,1.444,0,1,1,18,1,camembert,23,right,5046,férfi,1956.08.02.,22,2020-09-27_18h42.56.456,lexdecspan,2020.1.2,MacIntel,60,,,,,,
,,,,,,,,,,,,,,,,,,,5046,férfi,1956.08.02.,22,2020-09-27_18h42.56.456,lexdecspan,2020.1.2,MacIntel,60,0,22,22,22,1,blocks/block_23.xlsx
,,,,,,,,right,1,1.112,0,0,0,7,1,ború,24,right,5046,férfi,1956.08.02.,22,2020-09-27_18h42.56.456,lexdecspan,2020.1.2,MacIntel,60,,,,,,
,,,,,,,,right,1,1.274,0,1,1,3,1,tincs,24,right,5046,férfi,1956.08.02.,22,2020-09-27_18h42.56.456,lexdecspan,2020.1.2,MacIntel,60,,,,,,
,,,,,,,,,,,,,,,,,,,5046,férfi,1956.08.02.,22,2020-09-27_18h42.56.456,lexdecspan,2020.1.2,MacIntel,60,0,23,23,23,1,blocks/block_24.xlsx
,,,,,,,,right,1,1.594,0,0,0,5,1,fotoszintetikus,25,right,5046,férfi,1956.08.02.,22,2020-09-27_18h42.56.456,lexdecspan,2020.1.2,MacIntel,60,,,,,,
,,,,,,,,right,1,1.425,0,1,1,19,1,viszkóz,25,right,5046,férfi,1956.08.02.,22,2020-09-27_18h42.56.456,lexdecspan,2020.1.2,MacIntel,60,,,,,,
,,,,,,,,,,,,,,,,,,,5046,férfi,1956.08.02.,22,2020-09-27_18h42.56.456,lexdecspan,2020.1.2,MacIntel,60,0,24,24,24,1,blocks/block_25.xlsx
,,,,,,,,right,1,0.825,0,0,0,0,1,pártol,26,right,5046,férfi,1956.08.02.,22,2020-09-27_18h42.56.456,lexdecspan,2020.1.2,MacIntel,60,,,,,,
,,,,,,,,right,1,1.01,0,1,1,11,1,háborúzik,26,right,5046,férfi,1956.08.02.,22,2020-09-27_18h42.56.456,lexdecspan,2020.1.2,MacIntel,60,,,,,,
,,,,,,,,,,,,,,,,,,,5046,férfi,1956.08.02.,22,2020-09-27_18h42.56.456,lexdecspan,2020.1.2,MacIntel,60,0,25,25,25,1,blocks/block_26.xlsx
,,,,,,,,right,1,0.852,0,0,0,17,1,vicsorog,27,right,5046,férfi,1956.08.02.,22,2020-09-27_18h42.56.456,lexdecspan,2020.1.2,MacIntel,60,,,,,,
,,,,,,,,right,1,3.252,0,1,1,13,1,agronómus,27,right,5046,férfi,1956.08.02.,22,2020-09-27_18h42.56.456,lexdecspan,2020.1.2,MacIntel,60,,,,,,
,,,,,,,,,,,,,,,,,,,5046,férfi,1956.08.02.,22,2020-09-27_18h42.56.456,lexdecspan,2020.1.2,MacIntel,60,0,26,26,26,1,blocks/block_27.xlsx
,,,,,,,,right,1,1.218,0,0,0,4,1,martalóc,28,right,5046,férfi,1956.08.02.,22,2020-09-27_18h42.56.456,lexdecspan,2020.1.2,MacIntel,60,,,,,,
,,,,,,,,right,1,0.925,0,1,1,15,1,kitin,28,right,5046,férfi,1956.08.02.,22,2020-09-27_18h42.56.456,lexdecspan,2020.1.2,MacIntel,60,,,,,,
,,,,,,,,,,,,,,,,,,,5046,férfi,1956.08.02.,22,2020-09-27_18h42.56.456,lexdecspan,2020.1.2,MacIntel,60,0,27,27,27,1,blocks/block_28.xlsx
,,,,,,,,right,1,1.191,0,0,0,12,1,kapirgál,29,right,5046,férfi,1956.08.02.,22,2020-09-27_18h42.56.456,lexdecspan,2020.1.2,MacIntel,60,,,,,,
,,,,,,,,left,0,1.813,0,1,1,17,1,mimézis,29,right,5046,férfi,1956.08.02.,22,2020-09-27_18h42.56.456,lexdecspan,2020.1.2,MacIntel,60,,,,,,
,,,,,,,,right,1,1.511,0,2,2,18,1,megrohad,29,right,5046,férfi,1956.08.02.,22,2020-09-27_18h42.56.456,lexdecspan,2020.1.2,MacIntel,60,,,,,,
,,,,,,,,,,,,,,,,,,,5046,férfi,1956.08.02.,22,2020-09-27_18h42.56.456,lexdecspan,2020.1.2,MacIntel,60,0,28,28,28,1,blocks/block_29.xlsx
,,,,,,,,right,1,7.118,0,0,0,10,1,nyelvcsap,30,right,5046,férfi,1956.08.02.,22,2020-09-27_18h42.56.456,lexdecspan,2020.1.2,MacIntel,60,,,,,,
,,,,,,,,right,1,1.07,0,1,1,8,1,madársisak,30,right,5046,férfi,1956.08.02.,22,2020-09-27_18h42.56.456,lexdecspan,2020.1.2,MacIntel,60,,,,,,
,,,,,,,,,,,,,,,,,,,5046,férfi,1956.08.02.,22,2020-09-27_18h42.56.456,lexdecspan,2020.1.2,MacIntel,60,0,29,29,29,1,blocks/block_30.xlsx
,,,,,,,,left,1,1.609,0,0,0,3,1,sövet,31,left,5046,férfi,1956.08.02.,22,2020-09-27_18h42.56.456,lexdecspan,2020.1.2,MacIntel,60,,,,,,
,,,,,,,,right,1,1.43,0,1,1,15,1,csapattest,31,right,5046,férfi,1956.08.02.,22,2020-09-27_18h42.56.456,lexdecspan,2020.1.2,MacIntel,60,,,,,,
,,,,,,,,,,,,,,,,,,,5046,férfi,1956.08.02.,22,2020-09-27_18h42.56.456,lexdecspan,2020.1.2,MacIntel,60,0,30,30,30,1,blocks/block_31.xlsx
,,,,,,,,left,1,2.555,0,0,0,6,1,barlódiurné,32,left,5046,férfi,1956.08.02.,22,2020-09-27_18h42.56.456,lexdecspan,2020.1.2,MacIntel,60,,,,,,
,,,,,,,,right,1,1.787,0,1,1,5,1,frontszakasz,32,right,5046,férfi,1956.08.02.,22,2020-09-27_18h42.56.456,lexdecspan,2020.1.2,MacIntel,60,,,,,,
,,,,,,,,,,,,,,,,,,,5046,férfi,1956.08.02.,22,2020-09-27_18h42.56.456,lexdecspan,2020.1.2,MacIntel,60,0,31,31,31,1,blocks/block_32.xlsx
,,,,,,,,left,1,2.12,0,0,0,3,1,spratika,33,left,5046,férfi,1956.08.02.,22,2020-09-27_18h42.56.456,lexdecspan,2020.1.2,MacIntel,60,,,,,,
,,,,,,,,right,1,1.584,0,1,1,19,1,forrpont,33,right,5046,férfi,1956.08.02.,22,2020-09-27_18h42.56.456,lexdecspan,2020.1.2,MacIntel,60,,,,,,
,,,,,,,,,,,,,,,,,,,5046,férfi,1956.08.02.,22,2020-09-27_18h42.56.456,lexdecspan,2020.1.2,MacIntel,60,0,32,32,32,1,blocks/block_33.xlsx
,,,,,,,,left,1,16.15,0,0,0,21,1,egant,34,left,5046,férfi,1956.08.02.,22,2020-09-27_18h42.56.456,lexdecspan,2020.1.2,MacIntel,60,,,,,,
,,,,,,,,right,1,1.043,0,1,1,22,1,tipizál,34,right,5046,férfi,1956.08.02.,22,2020-09-27_18h42.56.456,lexdecspan,2020.1.2,MacIntel,60,,,,,,
,,,,,,,,,,,,,,,,,,,5046,férfi,1956.08.02.,22,2020-09-27_18h42.56.456,lexdecspan,2020.1.2,MacIntel,60,0,33,33,33,1,blocks/block_34.xlsx
,,,,,,,,right,1,1.497,0,0,0,13,1,rosszlelkű,35,right,5046,férfi,1956.08.02.,22,2020-09-27_18h42.56.456,lexdecspan,2020.1.2,MacIntel,60,,,,,,
,,,,,,,,left,1,2.876,0,1,1,10,1,krákfai,35,left,5046,férfi,1956.08.02.,22,2020-09-27_18h42.56.456,lexdecspan,2020.1.2,MacIntel,60,,,,,,
,,,,,,,,,,,,,,,,,,,5046,férfi,1956.08.02.,22,2020-09-27_18h42.56.456,lexdecspan,2020.1.2,MacIntel,60,0,34,34,34,1,blocks/block_35.xlsx
,,,,,,,,right,1,1.772,0,0,0,13,1,mérgesít,36,right,5046,férfi,1956.08.02.,22,2020-09-27_18h42.56.456,lexdecspan,2020.1.2,MacIntel,60,,,,,,
,,,,,,,,right,1,1.669,0,1,1,11,1,merítőkanál,36,right,5046,férfi,1956.08.02.,22,2020-09-27_18h42.56.456,lexdecspan,2020.1.2,MacIntel,60,,,,,,
,,,,,,,,,,,,,,,,,,,5046,férfi,1956.08.02.,22,2020-09-27_18h42.56.456,lexdecspan,2020.1.2,MacIntel,60,0,35,35,35,1,blocks/block_36.xlsx
,,,,,,,,left,1,1.17,0,0,0,9,1,reztetély,37,left,5046,férfi,1956.08.02.,22,2020-09-27_18h42.56.456,lexdecspan,2020.1.2,MacIntel,60,,,,,,
,,,,,,,,left,1,1.086,0,1,1,4,1,norvend,37,left,5046,férfi,1956.08.02.,22,2020-09-27_18h42.56.456,lexdecspan,2020.1.2,MacIntel,60,,,,,,
,,,,,,,,,,,,,,,,,,,5046,férfi,1956.08.02.,22,2020-09-27_18h42.56.456,lexdecspan,2020.1.2,MacIntel,60,0,36,36,36,1,blocks/block_37.xlsx
,,,,,,,,right,1,1.775,0,0,0,22,1,ravataloz,38,right,5046,férfi,1956.08.02.,22,2020-09-27_18h42.56.456,lexdecspan,2020.1.2,MacIntel,60,,,,,,
,,,,,,,,right,0,1.245,0,1,1,19,1,lovai,38,left,5046,férfi,1956.08.02.,22,2020-09-27_18h42.56.456,lexdecspan,2020.1.2,MacIntel,60,,,,,,
,,,,,,,,right,1,1.051,0,2,2,7,1,hamispénz,38,right,5046,férfi,1956.08.02.,22,2020-09-27_18h42.56.456,lexdecspan,2020.1.2,MacIntel,60,,,,,,
,,,,,,,,,,,,,,,,,,,5046,férfi,1956.08.02.,22,2020-09-27_18h42.56.456,lexdecspan,2020.1.2,MacIntel,60,0,37,37,37,1,blocks/block_38.xlsx
,,,,,,,,right,1,2.355,0,0,0,22,1,hazardíroz,39,right,5046,férfi,1956.08.02.,22,2020-09-27_18h42.56.456,lexdecspan,2020.1.2,MacIntel,60,,,,,,
,,,,,,,,right,1,1.217,0,1,1,3,1,büntetéspénz,39,right,5046,férfi,1956.08.02.,22,2020-09-27_18h42.56.456,lexdecspan,2020.1.2,MacIntel,60,,,,,,
,,,,,,,,,,,,,,,,,,,5046,férfi,1956.08.02.,22,2020-09-27_18h42.56.456,lexdecspan,2020.1.2,MacIntel,60,0,38,38,38,1,blocks/block_39.xlsx
,,,,,,,,left,1,1.471,0,0,0,20,1,kibeti,40,left,5046,férfi,1956.08.02.,22,2020-09-27_18h42.56.456,lexdecspan,2020.1.2,MacIntel,60,,,,,,
,,,,,,,,right,1,1.226,0,1,1,2,1,kócol,40,right,5046,férfi,1956.08.02.,22,2020-09-27_18h42.56.456,lexdecspan,2020.1.2,MacIntel,60,,,,,,
,,,,,,,,,,,,,,,,,,,5046,férfi,1956.08.02.,22,2020-09-27_18h42.56.456,lexdecspan,2020.1.2,MacIntel,60,0,39,39,39,1,blocks/block_40.xlsx
,,,,,,,,left,1,1.311,0,0,0,5,1,novagár,41,left,5046,férfi,1956.08.02.,22,2020-09-27_18h42.56.456,lexdecspan,2020.1.2,MacIntel,60,,,,,,
,,,,,,,,right,1,4.966,0,1,1,1,1,homeomorfizmus,41,right,5046,férfi,1956.08.02.,22,2020-09-27_18h42.56.456,lexdecspan,2020.1.2,MacIntel,60,,,,,,
,,,,,,,,,,,,,,,,,,,5046,férfi,1956.08.02.,22,2020-09-27_18h42.56.456,lexdecspan,2020.1.2,MacIntel,60,0,40,40,40,1,blocks/block_41.xlsx
,,,,,,,,left,0,4.616,0,0,0,19,1,tejeslány,42,right,5046,férfi,1956.08.02.,22,2020-09-27_18h42.56.456,lexdecspan,2020.1.2,MacIntel,60,,,,,,
,,,,,,,,right,1,1.752,0,1,1,3,1,kékít,42,right,5046,férfi,1956.08.02.,22,2020-09-27_18h42.56.456,lexdecspan,2020.1.2,MacIntel,60,,,,,,
,,,,,,,,left,1,8.262,0,2,2,2,1,ellagcse,42,left,5046,férfi,1956.08.02.,22,2020-09-27_18h42.56.456,lexdecspan,2020.1.2,MacIntel,60,,,,,,
,,,,,,,,,,,,,,,,,,,5046,férfi,1956.08.02.,22,2020-09-27_18h42.56.456,lexdecspan,2020.1.2,MacIntel,60,0,41,41,41,1,blocks/block_42.xlsx
,,,,,,,,right,1,1.683,0,0,0,12,1,lepadlózik,43,right,5046,férfi,1956.08.02.,22,2020-09-27_18h42.56.456,lexdecspan,2020.1.2,MacIntel,60,,,,,,
,,,,,,,,left,0,3.406,0,1,1,18,1,kispárlófű,43,right,5046,férfi,1956.08.02.,22,2020-09-27_18h42.56.456,lexdecspan,2020.1.2,MacIntel,60,,,,,,
,,,,,,,,left,1,1.722,0,2,2,19,1,aragas,43,left,5046,férfi,1956.08.02.,22,2020-09-27_18h42.56.456,lexdecspan,2020.1.2,MacIntel,60,,,,,,
,,,,,,,,,,,,,,,,,,,5046,férfi,1956.08.02.,22,2020-09-27_18h42.56.456,lexdecspan,2020.1.2,MacIntel,60,0,42,42,42,1,blocks/block_43.xlsx
,,,,,,,,right,1,1.153,0,0,0,16,1,tángál,44,right,5046,férfi,1956.08.02.,22,2020-09-27_18h42.56.456,lexdecspan,2020.1.2,MacIntel,60,,,,,,
,,,,,,,,left,1,1.775,0,1,1,9,1,extuál,44,left,5046,férfi,1956.08.02.,22,2020-09-27_18h42.56.456,lexdecspan,2020.1.2,MacIntel,60,,,,,,
,,,,,,,,,,,,,,,,,,,5046,férfi,1956.08.02.,22,2020-09-27_18h42.56.456,lexdecspan,2020.1.2,MacIntel,60,0,43,43,43,1,blocks/block_44.xlsx
,,,,,,,,left,1,2.59,0,0,0,7,1,gyant,45,left,5046,férfi,1956.08.02.,22,2020-09-27_18h42.56.456,lexdecspan,2020.1.2,MacIntel,60,,,,,,
,,,,,,,,right,1,6.025,0,1,1,21,1,hosszall,45,right,5046,férfi,1956.08.02.,22,2020-09-27_18h42.56.456,lexdecspan,2020.1.2,MacIntel,60,,,,,,
,,,,,,,,,,,,,,,,,,,5046,férfi,1956.08.02.,22,2020-09-27_18h42.56.456,lexdecspan,2020.1.2,MacIntel,60,0,44,44,44,1,blocks/block_45.xlsx
,,,,,,,,right,1,3.862,0,0,0,17,1,ifjít,46,right,5046,férfi,1956.08.02.,22,2020-09-27_18h42.56.456,lexdecspan,2020.1.2,MacIntel,60,,,,,,
,,,,,,,,left,1,2.704,0,1,1,11,1,fekcionák,46,left,5046,férfi,1956.08.02.,22,2020-09-27_18h42.56.456,lexdecspan,2020.1.2,MacIntel,60,,,,,,
,,,,,,,,,,,,,,,,,,,5046,férfi,1956.08.02.,22,2020-09-27_18h42.56.456,lexdecspan,2020.1.2,MacIntel,60,0,45,45,45,1,blocks/block_46.xlsx
,,,,,,,,left,1,1.521,0,0,0,23,1,pozákevegy,47,left,5046,férfi,1956.08.02.,22,2020-09-27_18h42.56.456,lexdecspan,2020.1.2,MacIntel,60,,,,,,
,,,,,,,,right,1,1.422,0,1,1,17,1,skubizik,47,right,5046,férfi,1956.08.02.,22,2020-09-27_18h42.56.456,lexdecspan,2020.1.2,MacIntel,60,,,,,,
,,,,,,,,,,,,,,,,,,,5046,férfi,1956.08.02.,22,2020-09-27_18h42.56.456,lexdecspan,2020.1.2,MacIntel,60,0,46,46,46,1,blocks/block_47.xlsx
,,,,,,,,left,1,2.973,0,0,0,17,1,lublika,48,left,5046,férfi,1956.08.02.,22,2020-09-27_18h42.56.456,lexdecspan,2020.1.2,MacIntel,60,,,,,,
,,,,,,,,right,1,2.278,0,1,1,13,1,pilinckézik,48,right,5046,férfi,1956.08.02.,22,2020-09-27_18h42.56.456,lexdecspan,2020.1.2,MacIntel,60,,,,,,
,,,,,,,,,,,,,,,,,,,5046,férfi,1956.08.02.,22,2020-09-27_18h42.56.456,lexdecspan,2020.1.2,MacIntel,60,0,47,47,47,1,blocks/block_48.xlsx
,,,,,,,,right,1,3.002,0,0,0,1,1,csapáz,49,right,5046,férfi,1956.08.02.,22,2020-09-27_18h42.56.456,lexdecspan,2020.1.2,MacIntel,60,,,,,,
,,,,,,,,left,0,8.325,0,1,1,19,1,frizíroz,49,right,5046,férfi,1956.08.02.,22,2020-09-27_18h42.56.456,lexdecspan,2020.1.2,MacIntel,60,,,,,,
,,,,,,,,right,1,1.335,0,2,2,6,1,kvártélyoz,49,right,5046,férfi,1956.08.02.,22,2020-09-27_18h42.56.456,lexdecspan,2020.1.2,MacIntel,60,,,,,,
,,,,,,,,,,,,,,,,,,,5046,férfi,1956.08.02.,22,2020-09-27_18h42.56.456,lexdecspan,2020.1.2,MacIntel,60,0,48,48,48,1,blocks/block_49.xlsx
,,,,,,,,left,1,2.364,0,0,0,6,1,cséltás,50,left,5046,férfi,1956.08.02.,22,2020-09-27_18h42.56.456,lexdecspan,2020.1.2,MacIntel,60,,,,,,
,,,,,,,,right,1,1.307,0,1,1,17,1,beszittyózik,50,right,5046,férfi,1956.08.02.,22,2020-09-27_18h42.56.456,lexdecspan,2020.1.2,MacIntel,60,,,,,,
