ready2.keys,ready2.rt,key_resp.keys,key_resp.rt,key_resp_2.keys,key_resp_2.rt,ready3.keys,ready3.rt,resp.keys,resp.corr,resp.rt,within_block.thisRepN,within_block.thisTrialN,within_block.thisN,within_block.thisIndex,within_block.ran,word,difficulty,correct_answer,Azonosító,Az Ön neme,Születési éve,Hány évet töltött az iskolapadban (egyetemet is beleértve),date,expName,psychopyVersion,OS,frameRate,trials.thisRepN,trials.thisTrialN,trials.thisN,trials.thisIndex,trials.ran,block_names
right,16.062,right,2.829,left,0.983,right,8.066,right,1,1.789,0,0,0,11,1,augusztus,1,right,5114,Nő,1989.05.09.,20,2020-09-22_12h01.30.628,lexdecspan,2020.1.2,Win32,60,,,,,,
,,,,,,,,right,1,0.785,0,1,1,20,1,igaz,1,right,5114,Nő,1989.05.09.,20,2020-09-22_12h01.30.628,lexdecspan,2020.1.2,Win32,60,,,,,,
,,,,,,,,,,,,,,,,,,,5114,Nő,1989.05.09.,20,2020-09-22_12h01.30.628,lexdecspan,2020.1.2,Win32,60,0,0,0,0,1,blocks/block_1.xlsx
,,,,,,,,right,1,0.731,0,0,0,12,1,cím,2,right,5114,Nő,1989.05.09.,20,2020-09-22_12h01.30.628,lexdecspan,2020.1.2,Win32,60,,,,,,
,,,,,,,,right,1,0.729,0,1,1,13,1,típusú,2,right,5114,Nő,1989.05.09.,20,2020-09-22_12h01.30.628,lexdecspan,2020.1.2,Win32,60,,,,,,
,,,,,,,,,,,,,,,,,,,5114,Nő,1989.05.09.,20,2020-09-22_12h01.30.628,lexdecspan,2020.1.2,Win32,60,0,1,1,1,1,blocks/block_2.xlsx
,,,,,,,,right,1,0.62,0,0,0,18,1,eszköz,3,right,5114,Nő,1989.05.09.,20,2020-09-22_12h01.30.628,lexdecspan,2020.1.2,Win32,60,,,,,,
,,,,,,,,right,1,0.75,0,1,1,13,1,százalék,3,right,5114,Nő,1989.05.09.,20,2020-09-22_12h01.30.628,lexdecspan,2020.1.2,Win32,60,,,,,,
,,,,,,,,,,,,,,,,,,,5114,Nő,1989.05.09.,20,2020-09-22_12h01.30.628,lexdecspan,2020.1.2,Win32,60,0,2,2,2,1,blocks/block_3.xlsx
,,,,,,,,right,1,0.636,0,0,0,17,1,alap,4,right,5114,Nő,1989.05.09.,20,2020-09-22_12h01.30.628,lexdecspan,2020.1.2,Win32,60,,,,,,
,,,,,,,,right,1,0.666,0,1,1,14,1,párt,4,right,5114,Nő,1989.05.09.,20,2020-09-22_12h01.30.628,lexdecspan,2020.1.2,Win32,60,,,,,,
,,,,,,,,,,,,,,,,,,,5114,Nő,1989.05.09.,20,2020-09-22_12h01.30.628,lexdecspan,2020.1.2,Win32,60,0,3,3,3,1,blocks/block_4.xlsx
,,,,,,,,right,1,0.638,0,0,0,14,1,szegény,5,right,5114,Nő,1989.05.09.,20,2020-09-22_12h01.30.628,lexdecspan,2020.1.2,Win32,60,,,,,,
,,,,,,,,right,1,0.633,0,1,1,4,1,mond,5,right,5114,Nő,1989.05.09.,20,2020-09-22_12h01.30.628,lexdecspan,2020.1.2,Win32,60,,,,,,
,,,,,,,,,,,,,,,,,,,5114,Nő,1989.05.09.,20,2020-09-22_12h01.30.628,lexdecspan,2020.1.2,Win32,60,0,4,4,4,1,blocks/block_5.xlsx
,,,,,,,,left,1,1.594,0,0,0,21,1,bakú,6,left,5114,Nő,1989.05.09.,20,2020-09-22_12h01.30.628,lexdecspan,2020.1.2,Win32,60,,,,,,
,,,,,,,,right,1,0.927,0,1,1,15,1,jármű,6,right,5114,Nő,1989.05.09.,20,2020-09-22_12h01.30.628,lexdecspan,2020.1.2,Win32,60,,,,,,
,,,,,,,,,,,,,,,,,,,5114,Nő,1989.05.09.,20,2020-09-22_12h01.30.628,lexdecspan,2020.1.2,Win32,60,0,5,5,5,1,blocks/block_6.xlsx
,,,,,,,,right,1,0.766,0,0,0,16,1,fut,7,right,5114,Nő,1989.05.09.,20,2020-09-22_12h01.30.628,lexdecspan,2020.1.2,Win32,60,,,,,,
,,,,,,,,left,1,1.998,0,1,1,17,1,rohangsári,7,left,5114,Nő,1989.05.09.,20,2020-09-22_12h01.30.628,lexdecspan,2020.1.2,Win32,60,,,,,,
,,,,,,,,,,,,,,,,,,,5114,Nő,1989.05.09.,20,2020-09-22_12h01.30.628,lexdecspan,2020.1.2,Win32,60,0,6,6,6,1,blocks/block_7.xlsx
,,,,,,,,right,1,0.816,0,0,0,7,1,kollektív,8,right,5114,Nő,1989.05.09.,20,2020-09-22_12h01.30.628,lexdecspan,2020.1.2,Win32,60,,,,,,
,,,,,,,,right,1,0.516,0,1,1,15,1,hagy,8,right,5114,Nő,1989.05.09.,20,2020-09-22_12h01.30.628,lexdecspan,2020.1.2,Win32,60,,,,,,
,,,,,,,,,,,,,,,,,,,5114,Nő,1989.05.09.,20,2020-09-22_12h01.30.628,lexdecspan,2020.1.2,Win32,60,0,7,7,7,1,blocks/block_8.xlsx
,,,,,,,,right,1,0.904,0,0,0,19,1,nagyméretű,9,right,5114,Nő,1989.05.09.,20,2020-09-22_12h01.30.628,lexdecspan,2020.1.2,Win32,60,,,,,,
,,,,,,,,right,1,0.849,0,1,1,4,1,radikális,9,right,5114,Nő,1989.05.09.,20,2020-09-22_12h01.30.628,lexdecspan,2020.1.2,Win32,60,,,,,,
,,,,,,,,,,,,,,,,,,,5114,Nő,1989.05.09.,20,2020-09-22_12h01.30.628,lexdecspan,2020.1.2,Win32,60,0,8,8,8,1,blocks/block_9.xlsx
,,,,,,,,right,1,0.816,0,0,0,5,1,keskeny,10,right,5114,Nő,1989.05.09.,20,2020-09-22_12h01.30.628,lexdecspan,2020.1.2,Win32,60,,,,,,
,,,,,,,,left,1,0.937,0,1,1,20,1,hozandzsa,10,left,5114,Nő,1989.05.09.,20,2020-09-22_12h01.30.628,lexdecspan,2020.1.2,Win32,60,,,,,,
,,,,,,,,,,,,,,,,,,,5114,Nő,1989.05.09.,20,2020-09-22_12h01.30.628,lexdecspan,2020.1.2,Win32,60,0,9,9,9,1,blocks/block_10.xlsx
,,,,,,,,right,1,1.021,0,0,0,3,1,multinacionális,11,right,5114,Nő,1989.05.09.,20,2020-09-22_12h01.30.628,lexdecspan,2020.1.2,Win32,60,,,,,,
,,,,,,,,right,1,0.769,0,1,1,8,1,tábornok,11,right,5114,Nő,1989.05.09.,20,2020-09-22_12h01.30.628,lexdecspan,2020.1.2,Win32,60,,,,,,
,,,,,,,,,,,,,,,,,,,5114,Nő,1989.05.09.,20,2020-09-22_12h01.30.628,lexdecspan,2020.1.2,Win32,60,0,10,10,10,1,blocks/block_11.xlsx
,,,,,,,,right,1,0.949,0,0,0,0,1,gyárt,12,right,5114,Nő,1989.05.09.,20,2020-09-22_12h01.30.628,lexdecspan,2020.1.2,Win32,60,,,,,,
,,,,,,,,right,1,0.883,0,1,1,16,1,gótikus,12,right,5114,Nő,1989.05.09.,20,2020-09-22_12h01.30.628,lexdecspan,2020.1.2,Win32,60,,,,,,
,,,,,,,,,,,,,,,,,,,5114,Nő,1989.05.09.,20,2020-09-22_12h01.30.628,lexdecspan,2020.1.2,Win32,60,0,11,11,11,1,blocks/block_12.xlsx
,,,,,,,,left,1,0.899,0,0,0,5,1,dohorpák,13,left,5114,Nő,1989.05.09.,20,2020-09-22_12h01.30.628,lexdecspan,2020.1.2,Win32,60,,,,,,
,,,,,,,,right,1,0.75,0,1,1,2,1,zord,13,right,5114,Nő,1989.05.09.,20,2020-09-22_12h01.30.628,lexdecspan,2020.1.2,Win32,60,,,,,,
,,,,,,,,,,,,,,,,,,,5114,Nő,1989.05.09.,20,2020-09-22_12h01.30.628,lexdecspan,2020.1.2,Win32,60,0,12,12,12,1,blocks/block_13.xlsx
,,,,,,,,right,1,0.694,0,0,0,5,1,szobrász,14,right,5114,Nő,1989.05.09.,20,2020-09-22_12h01.30.628,lexdecspan,2020.1.2,Win32,60,,,,,,
,,,,,,,,right,1,0.583,0,1,1,22,1,törődik,14,right,5114,Nő,1989.05.09.,20,2020-09-22_12h01.30.628,lexdecspan,2020.1.2,Win32,60,,,,,,
,,,,,,,,,,,,,,,,,,,5114,Nő,1989.05.09.,20,2020-09-22_12h01.30.628,lexdecspan,2020.1.2,Win32,60,0,13,13,13,1,blocks/block_14.xlsx
,,,,,,,,right,1,1.733,0,0,0,14,1,vélekedik,15,right,5114,Nő,1989.05.09.,20,2020-09-22_12h01.30.628,lexdecspan,2020.1.2,Win32,60,,,,,,
,,,,,,,,right,1,0.543,0,1,1,23,1,hull,15,right,5114,Nő,1989.05.09.,20,2020-09-22_12h01.30.628,lexdecspan,2020.1.2,Win32,60,,,,,,
,,,,,,,,,,,,,,,,,,,5114,Nő,1989.05.09.,20,2020-09-22_12h01.30.628,lexdecspan,2020.1.2,Win32,60,0,14,14,14,1,blocks/block_15.xlsx
,,,,,,,,left,1,1.874,0,0,0,6,1,léptelegy,16,left,5114,Nő,1989.05.09.,20,2020-09-22_12h01.30.628,lexdecspan,2020.1.2,Win32,60,,,,,,
,,,,,,,,right,1,0.812,0,1,1,12,1,ólom,16,right,5114,Nő,1989.05.09.,20,2020-09-22_12h01.30.628,lexdecspan,2020.1.2,Win32,60,,,,,,
,,,,,,,,,,,,,,,,,,,5114,Nő,1989.05.09.,20,2020-09-22_12h01.30.628,lexdecspan,2020.1.2,Win32,60,0,15,15,15,1,blocks/block_16.xlsx
,,,,,,,,right,1,0.741,0,0,0,7,1,értékesít,17,right,5114,Nő,1989.05.09.,20,2020-09-22_12h01.30.628,lexdecspan,2020.1.2,Win32,60,,,,,,
,,,,,,,,right,1,0.799,0,1,1,3,1,holttest,17,right,5114,Nő,1989.05.09.,20,2020-09-22_12h01.30.628,lexdecspan,2020.1.2,Win32,60,,,,,,
,,,,,,,,,,,,,,,,,,,5114,Nő,1989.05.09.,20,2020-09-22_12h01.30.628,lexdecspan,2020.1.2,Win32,60,0,16,16,16,1,blocks/block_17.xlsx
,,,,,,,,left,1,1.09,0,0,0,0,1,szivalka,18,left,5114,Nő,1989.05.09.,20,2020-09-22_12h01.30.628,lexdecspan,2020.1.2,Win32,60,,,,,,
,,,,,,,,right,1,0.781,0,1,1,20,1,biblikus,18,right,5114,Nő,1989.05.09.,20,2020-09-22_12h01.30.628,lexdecspan,2020.1.2,Win32,60,,,,,,
,,,,,,,,,,,,,,,,,,,5114,Nő,1989.05.09.,20,2020-09-22_12h01.30.628,lexdecspan,2020.1.2,Win32,60,0,17,17,17,1,blocks/block_18.xlsx
,,,,,,,,right,0,0.478,0,0,0,22,1,balji,19,left,5114,Nő,1989.05.09.,20,2020-09-22_12h01.30.628,lexdecspan,2020.1.2,Win32,60,,,,,,
,,,,,,,,right,1,1.05,0,1,1,7,1,fennsík,19,right,5114,Nő,1989.05.09.,20,2020-09-22_12h01.30.628,lexdecspan,2020.1.2,Win32,60,,,,,,
,,,,,,,,right,1,1.041,0,2,2,5,1,nyakörv,19,right,5114,Nő,1989.05.09.,20,2020-09-22_12h01.30.628,lexdecspan,2020.1.2,Win32,60,,,,,,
,,,,,,,,,,,,,,,,,,,5114,Nő,1989.05.09.,20,2020-09-22_12h01.30.628,lexdecspan,2020.1.2,Win32,60,0,18,18,18,1,blocks/block_19.xlsx
,,,,,,,,right,1,1.121,0,0,0,1,1,polipropilén,20,right,5114,Nő,1989.05.09.,20,2020-09-22_12h01.30.628,lexdecspan,2020.1.2,Win32,60,,,,,,
,,,,,,,,right,1,0.82,0,1,1,14,1,stádium,20,right,5114,Nő,1989.05.09.,20,2020-09-22_12h01.30.628,lexdecspan,2020.1.2,Win32,60,,,,,,
,,,,,,,,,,,,,,,,,,,5114,Nő,1989.05.09.,20,2020-09-22_12h01.30.628,lexdecspan,2020.1.2,Win32,60,0,19,19,19,1,blocks/block_20.xlsx
,,,,,,,,left,1,1.294,0,0,0,12,1,törvosítoz,21,left,5114,Nő,1989.05.09.,20,2020-09-22_12h01.30.628,lexdecspan,2020.1.2,Win32,60,,,,,,
,,,,,,,,right,1,1.271,0,1,1,3,1,fanatizmus,21,right,5114,Nő,1989.05.09.,20,2020-09-22_12h01.30.628,lexdecspan,2020.1.2,Win32,60,,,,,,
,,,,,,,,,,,,,,,,,,,5114,Nő,1989.05.09.,20,2020-09-22_12h01.30.628,lexdecspan,2020.1.2,Win32,60,0,20,20,20,1,blocks/block_21.xlsx
,,,,,,,,right,1,1.107,0,0,0,8,1,piktogram,22,right,5114,Nő,1989.05.09.,20,2020-09-22_12h01.30.628,lexdecspan,2020.1.2,Win32,60,,,,,,
,,,,,,,,right,1,1.232,0,1,1,3,1,algoritmikus,22,right,5114,Nő,1989.05.09.,20,2020-09-22_12h01.30.628,lexdecspan,2020.1.2,Win32,60,,,,,,
,,,,,,,,,,,,,,,,,,,5114,Nő,1989.05.09.,20,2020-09-22_12h01.30.628,lexdecspan,2020.1.2,Win32,60,0,21,21,21,1,blocks/block_22.xlsx
,,,,,,,,right,1,1.516,0,0,0,12,1,referál,23,right,5114,Nő,1989.05.09.,20,2020-09-22_12h01.30.628,lexdecspan,2020.1.2,Win32,60,,,,,,
,,,,,,,,right,1,0.735,0,1,1,10,1,árus,23,right,5114,Nő,1989.05.09.,20,2020-09-22_12h01.30.628,lexdecspan,2020.1.2,Win32,60,,,,,,
,,,,,,,,,,,,,,,,,,,5114,Nő,1989.05.09.,20,2020-09-22_12h01.30.628,lexdecspan,2020.1.2,Win32,60,0,22,22,22,1,blocks/block_23.xlsx
,,,,,,,,right,1,0.66,0,0,0,11,1,kulcscsont,24,right,5114,Nő,1989.05.09.,20,2020-09-22_12h01.30.628,lexdecspan,2020.1.2,Win32,60,,,,,,
,,,,,,,,left,1,0.855,0,1,1,5,1,khiba,24,left,5114,Nő,1989.05.09.,20,2020-09-22_12h01.30.628,lexdecspan,2020.1.2,Win32,60,,,,,,
,,,,,,,,,,,,,,,,,,,5114,Nő,1989.05.09.,20,2020-09-22_12h01.30.628,lexdecspan,2020.1.2,Win32,60,0,23,23,23,1,blocks/block_24.xlsx
,,,,,,,,right,1,0.784,0,0,0,4,1,lágyék,25,right,5114,Nő,1989.05.09.,20,2020-09-22_12h01.30.628,lexdecspan,2020.1.2,Win32,60,,,,,,
,,,,,,,,left,1,0.938,0,1,1,12,1,balassol,25,left,5114,Nő,1989.05.09.,20,2020-09-22_12h01.30.628,lexdecspan,2020.1.2,Win32,60,,,,,,
,,,,,,,,,,,,,,,,,,,5114,Nő,1989.05.09.,20,2020-09-22_12h01.30.628,lexdecspan,2020.1.2,Win32,60,0,24,24,24,1,blocks/block_25.xlsx
,,,,,,,,left,0,0.865,0,0,0,14,1,multiplikatív,26,right,5114,Nő,1989.05.09.,20,2020-09-22_12h01.30.628,lexdecspan,2020.1.2,Win32,60,,,,,,
,,,,,,,,right,1,0.824,0,1,1,15,1,szalicil,26,right,5114,Nő,1989.05.09.,20,2020-09-22_12h01.30.628,lexdecspan,2020.1.2,Win32,60,,,,,,
,,,,,,,,right,1,0.81,0,2,2,20,1,sziszeg,26,right,5114,Nő,1989.05.09.,20,2020-09-22_12h01.30.628,lexdecspan,2020.1.2,Win32,60,,,,,,
,,,,,,,,,,,,,,,,,,,5114,Nő,1989.05.09.,20,2020-09-22_12h01.30.628,lexdecspan,2020.1.2,Win32,60,0,25,25,25,1,blocks/block_26.xlsx
,,,,,,,,right,1,0.665,0,0,0,14,1,fürkész,27,right,5114,Nő,1989.05.09.,20,2020-09-22_12h01.30.628,lexdecspan,2020.1.2,Win32,60,,,,,,
,,,,,,,,right,1,1.006,0,1,1,21,1,forróvérű,27,right,5114,Nő,1989.05.09.,20,2020-09-22_12h01.30.628,lexdecspan,2020.1.2,Win32,60,,,,,,
,,,,,,,,,,,,,,,,,,,5114,Nő,1989.05.09.,20,2020-09-22_12h01.30.628,lexdecspan,2020.1.2,Win32,60,0,26,26,26,1,blocks/block_27.xlsx
,,,,,,,,right,1,1.082,0,0,0,7,1,sematizmus,28,right,5114,Nő,1989.05.09.,20,2020-09-22_12h01.30.628,lexdecspan,2020.1.2,Win32,60,,,,,,
,,,,,,,,right,1,0.916,0,1,1,16,1,gézengúz,28,right,5114,Nő,1989.05.09.,20,2020-09-22_12h01.30.628,lexdecspan,2020.1.2,Win32,60,,,,,,
,,,,,,,,,,,,,,,,,,,5114,Nő,1989.05.09.,20,2020-09-22_12h01.30.628,lexdecspan,2020.1.2,Win32,60,0,27,27,27,1,blocks/block_28.xlsx
,,,,,,,,right,1,0.885,0,0,0,18,1,megrohad,29,right,5114,Nő,1989.05.09.,20,2020-09-22_12h01.30.628,lexdecspan,2020.1.2,Win32,60,,,,,,
,,,,,,,,left,1,1.337,0,1,1,23,1,peny,29,left,5114,Nő,1989.05.09.,20,2020-09-22_12h01.30.628,lexdecspan,2020.1.2,Win32,60,,,,,,
,,,,,,,,,,,,,,,,,,,5114,Nő,1989.05.09.,20,2020-09-22_12h01.30.628,lexdecspan,2020.1.2,Win32,60,0,28,28,28,1,blocks/block_29.xlsx
,,,,,,,,left,1,1.302,0,0,0,15,1,lező,30,left,5114,Nő,1989.05.09.,20,2020-09-22_12h01.30.628,lexdecspan,2020.1.2,Win32,60,,,,,,
,,,,,,,,right,1,0.899,0,1,1,14,1,nukleon,30,right,5114,Nő,1989.05.09.,20,2020-09-22_12h01.30.628,lexdecspan,2020.1.2,Win32,60,,,,,,
,,,,,,,,,,,,,,,,,,,5114,Nő,1989.05.09.,20,2020-09-22_12h01.30.628,lexdecspan,2020.1.2,Win32,60,0,29,29,29,1,blocks/block_30.xlsx
,,,,,,,,right,1,0.833,0,0,0,2,1,kanalaz,31,right,5114,Nő,1989.05.09.,20,2020-09-22_12h01.30.628,lexdecspan,2020.1.2,Win32,60,,,,,,
,,,,,,,,left,1,1.683,0,1,1,3,1,sövet,31,left,5114,Nő,1989.05.09.,20,2020-09-22_12h01.30.628,lexdecspan,2020.1.2,Win32,60,,,,,,
,,,,,,,,,,,,,,,,,,,5114,Nő,1989.05.09.,20,2020-09-22_12h01.30.628,lexdecspan,2020.1.2,Win32,60,0,30,30,30,1,blocks/block_31.xlsx
,,,,,,,,right,1,2.358,0,0,0,9,1,szupraindividuális,32,right,5114,Nő,1989.05.09.,20,2020-09-22_12h01.30.628,lexdecspan,2020.1.2,Win32,60,,,,,,
,,,,,,,,left,1,1.687,0,1,1,14,1,nyolgató,32,left,5114,Nő,1989.05.09.,20,2020-09-22_12h01.30.628,lexdecspan,2020.1.2,Win32,60,,,,,,
,,,,,,,,,,,,,,,,,,,5114,Nő,1989.05.09.,20,2020-09-22_12h01.30.628,lexdecspan,2020.1.2,Win32,60,0,31,31,31,1,blocks/block_32.xlsx
,,,,,,,,left,1,0.732,0,0,0,21,1,tröshet,33,left,5114,Nő,1989.05.09.,20,2020-09-22_12h01.30.628,lexdecspan,2020.1.2,Win32,60,,,,,,
,,,,,,,,left,0,1.683,0,1,1,9,1,allodiális,33,right,5114,Nő,1989.05.09.,20,2020-09-22_12h01.30.628,lexdecspan,2020.1.2,Win32,60,,,,,,
,,,,,,,,left,1,1.275,0,2,2,5,1,kijjongó,33,left,5114,Nő,1989.05.09.,20,2020-09-22_12h01.30.628,lexdecspan,2020.1.2,Win32,60,,,,,,
,,,,,,,,,,,,,,,,,,,5114,Nő,1989.05.09.,20,2020-09-22_12h01.30.628,lexdecspan,2020.1.2,Win32,60,0,32,32,32,1,blocks/block_33.xlsx
,,,,,,,,left,0,1.969,0,0,0,0,1,kontrapunkt,34,right,5114,Nő,1989.05.09.,20,2020-09-22_12h01.30.628,lexdecspan,2020.1.2,Win32,60,,,,,,
,,,,,,,,left,1,0.665,0,1,1,21,1,egant,34,left,5114,Nő,1989.05.09.,20,2020-09-22_12h01.30.628,lexdecspan,2020.1.2,Win32,60,,,,,,
,,,,,,,,right,1,0.832,0,2,2,20,1,repedtfazék,34,right,5114,Nő,1989.05.09.,20,2020-09-22_12h01.30.628,lexdecspan,2020.1.2,Win32,60,,,,,,
,,,,,,,,,,,,,,,,,,,5114,Nő,1989.05.09.,20,2020-09-22_12h01.30.628,lexdecspan,2020.1.2,Win32,60,0,33,33,33,1,blocks/block_34.xlsx
,,,,,,,,right,1,0.922,0,0,0,17,1,tangózik,35,right,5114,Nő,1989.05.09.,20,2020-09-22_12h01.30.628,lexdecspan,2020.1.2,Win32,60,,,,,,
,,,,,,,,right,1,1.085,0,1,1,0,1,hengerszimmetrikus,35,right,5114,Nő,1989.05.09.,20,2020-09-22_12h01.30.628,lexdecspan,2020.1.2,Win32,60,,,,,,
,,,,,,,,,,,,,,,,,,,5114,Nő,1989.05.09.,20,2020-09-22_12h01.30.628,lexdecspan,2020.1.2,Win32,60,0,34,34,34,1,blocks/block_35.xlsx
,,,,,,,,right,1,0.951,0,0,0,4,1,hízelkedik,36,right,5114,Nő,1989.05.09.,20,2020-09-22_12h01.30.628,lexdecspan,2020.1.2,Win32,60,,,,,,
,,,,,,,,left,1,0.877,0,1,1,16,1,keltos,36,left,5114,Nő,1989.05.09.,20,2020-09-22_12h01.30.628,lexdecspan,2020.1.2,Win32,60,,,,,,
,,,,,,,,,,,,,,,,,,,5114,Nő,1989.05.09.,20,2020-09-22_12h01.30.628,lexdecspan,2020.1.2,Win32,60,0,35,35,35,1,blocks/block_36.xlsx
,,,,,,,,left,0,0.653,0,0,0,22,1,bouillon,37,right,5114,Nő,1989.05.09.,20,2020-09-22_12h01.30.628,lexdecspan,2020.1.2,Win32,60,,,,,,
,,,,,,,,right,1,0.886,0,1,1,14,1,öklendez,37,right,5114,Nő,1989.05.09.,20,2020-09-22_12h01.30.628,lexdecspan,2020.1.2,Win32,60,,,,,,
,,,,,,,,left,0,0.817,0,2,2,10,1,kölönc,37,right,5114,Nő,1989.05.09.,20,2020-09-22_12h01.30.628,lexdecspan,2020.1.2,Win32,60,,,,,,
,,,,,,,,left,1,0.925,0,3,3,19,1,kajakusz,37,left,5114,Nő,1989.05.09.,20,2020-09-22_12h01.30.628,lexdecspan,2020.1.2,Win32,60,,,,,,
,,,,,,,,,,,,,,,,,,,5114,Nő,1989.05.09.,20,2020-09-22_12h01.30.628,lexdecspan,2020.1.2,Win32,60,0,36,36,36,1,blocks/block_37.xlsx
,,,,,,,,right,1,0.866,0,0,0,0,1,organizál,38,right,5114,Nő,1989.05.09.,20,2020-09-22_12h01.30.628,lexdecspan,2020.1.2,Win32,60,,,,,,
,,,,,,,,right,1,1.487,0,1,1,15,1,farkasbab,38,right,5114,Nő,1989.05.09.,20,2020-09-22_12h01.30.628,lexdecspan,2020.1.2,Win32,60,,,,,,
,,,,,,,,,,,,,,,,,,,5114,Nő,1989.05.09.,20,2020-09-22_12h01.30.628,lexdecspan,2020.1.2,Win32,60,0,37,37,37,1,blocks/block_38.xlsx
,,,,,,,,left,1,0.895,0,0,0,7,1,nyagy,39,left,5114,Nő,1989.05.09.,20,2020-09-22_12h01.30.628,lexdecspan,2020.1.2,Win32,60,,,,,,
,,,,,,,,right,0,0.667,0,1,1,15,1,tiszogó,39,left,5114,Nő,1989.05.09.,20,2020-09-22_12h01.30.628,lexdecspan,2020.1.2,Win32,60,,,,,,
,,,,,,,,left,0,0.653,0,2,2,0,1,oikosz,39,right,5114,Nő,1989.05.09.,20,2020-09-22_12h01.30.628,lexdecspan,2020.1.2,Win32,60,,,,,,
,,,,,,,,right,1,1.097,0,3,3,5,1,szeizmogram,39,right,5114,Nő,1989.05.09.,20,2020-09-22_12h01.30.628,lexdecspan,2020.1.2,Win32,60,,,,,,
,,,,,,,,,,,,,,,,,,,5114,Nő,1989.05.09.,20,2020-09-22_12h01.30.628,lexdecspan,2020.1.2,Win32,60,0,38,38,38,1,blocks/block_39.xlsx
,,,,,,,,right,1,0.838,0,0,0,4,1,füvesít,40,right,5114,Nő,1989.05.09.,20,2020-09-22_12h01.30.628,lexdecspan,2020.1.2,Win32,60,,,,,,
,,,,,,,,left,0,1.705,0,1,1,22,1,lépdegél,40,right,5114,Nő,1989.05.09.,20,2020-09-22_12h01.30.628,lexdecspan,2020.1.2,Win32,60,,,,,,
,,,,,,,,left,1,1.67,0,2,2,6,1,tömődékhet,40,left,5114,Nő,1989.05.09.,20,2020-09-22_12h01.30.628,lexdecspan,2020.1.2,Win32,60,,,,,,
,,,,,,,,,,,,,,,,,,,5114,Nő,1989.05.09.,20,2020-09-22_12h01.30.628,lexdecspan,2020.1.2,Win32,60,0,39,39,39,1,blocks/block_40.xlsx
,,,,,,,,right,1,0.832,0,0,0,9,1,rezervál,41,right,5114,Nő,1989.05.09.,20,2020-09-22_12h01.30.628,lexdecspan,2020.1.2,Win32,60,,,,,,
,,,,,,,,right,1,3.36,0,1,1,12,1,kardorrú,41,right,5114,Nő,1989.05.09.,20,2020-09-22_12h01.30.628,lexdecspan,2020.1.2,Win32,60,,,,,,
,,,,,,,,,,,,,,,,,,,5114,Nő,1989.05.09.,20,2020-09-22_12h01.30.628,lexdecspan,2020.1.2,Win32,60,0,40,40,40,1,blocks/block_41.xlsx
,,,,,,,,right,1,0.94,0,0,0,0,1,dölyfösködik,42,right,5114,Nő,1989.05.09.,20,2020-09-22_12h01.30.628,lexdecspan,2020.1.2,Win32,60,,,,,,
,,,,,,,,right,1,0.908,0,1,1,9,1,standardizál,42,right,5114,Nő,1989.05.09.,20,2020-09-22_12h01.30.628,lexdecspan,2020.1.2,Win32,60,,,,,,
,,,,,,,,,,,,,,,,,,,5114,Nő,1989.05.09.,20,2020-09-22_12h01.30.628,lexdecspan,2020.1.2,Win32,60,0,41,41,41,1,blocks/block_42.xlsx
,,,,,,,,right,1,1.457,0,0,0,6,1,buktázik,43,right,5114,Nő,1989.05.09.,20,2020-09-22_12h01.30.628,lexdecspan,2020.1.2,Win32,60,,,,,,
,,,,,,,,right,1,1.05,0,1,1,12,1,lepadlózik,43,right,5114,Nő,1989.05.09.,20,2020-09-22_12h01.30.628,lexdecspan,2020.1.2,Win32,60,,,,,,
,,,,,,,,,,,,,,,,,,,5114,Nő,1989.05.09.,20,2020-09-22_12h01.30.628,lexdecspan,2020.1.2,Win32,60,0,42,42,42,1,blocks/block_43.xlsx
,,,,,,,,left,1,1.339,0,0,0,11,1,szemfa,44,left,5114,Nő,1989.05.09.,20,2020-09-22_12h01.30.628,lexdecspan,2020.1.2,Win32,60,,,,,,
,,,,,,,,left,1,1.3,0,1,1,22,1,takorák,44,left,5114,Nő,1989.05.09.,20,2020-09-22_12h01.30.628,lexdecspan,2020.1.2,Win32,60,,,,,,
,,,,,,,,,,,,,,,,,,,5114,Nő,1989.05.09.,20,2020-09-22_12h01.30.628,lexdecspan,2020.1.2,Win32,60,0,43,43,43,1,blocks/block_44.xlsx
,,,,,,,,left,1,0.807,0,0,0,11,1,kendőr,45,left,5114,Nő,1989.05.09.,20,2020-09-22_12h01.30.628,lexdecspan,2020.1.2,Win32,60,,,,,,
,,,,,,,,right,1,0.809,0,1,1,14,1,konverzál,45,right,5114,Nő,1989.05.09.,20,2020-09-22_12h01.30.628,lexdecspan,2020.1.2,Win32,60,,,,,,
,,,,,,,,,,,,,,,,,,,5114,Nő,1989.05.09.,20,2020-09-22_12h01.30.628,lexdecspan,2020.1.2,Win32,60,0,44,44,44,1,blocks/block_45.xlsx
,,,,,,,,left,0,2.566,0,0,0,23,1,cirkalmaz,46,right,5114,Nő,1989.05.09.,20,2020-09-22_12h01.30.628,lexdecspan,2020.1.2,Win32,60,,,,,,
,,,,,,,,left,1,1.016,0,1,1,10,1,csüggöny,46,left,5114,Nő,1989.05.09.,20,2020-09-22_12h01.30.628,lexdecspan,2020.1.2,Win32,60,,,,,,
,,,,,,,,right,1,0.843,0,2,2,4,1,jóltart,46,right,5114,Nő,1989.05.09.,20,2020-09-22_12h01.30.628,lexdecspan,2020.1.2,Win32,60,,,,,,
,,,,,,,,,,,,,,,,,,,5114,Nő,1989.05.09.,20,2020-09-22_12h01.30.628,lexdecspan,2020.1.2,Win32,60,0,45,45,45,1,blocks/block_46.xlsx
,,,,,,,,left,1,1.437,0,0,0,23,1,pozákevegy,47,left,5114,Nő,1989.05.09.,20,2020-09-22_12h01.30.628,lexdecspan,2020.1.2,Win32,60,,,,,,
,,,,,,,,right,1,1.799,0,1,1,4,1,disszertál,47,right,5114,Nő,1989.05.09.,20,2020-09-22_12h01.30.628,lexdecspan,2020.1.2,Win32,60,,,,,,
,,,,,,,,,,,,,,,,,,,5114,Nő,1989.05.09.,20,2020-09-22_12h01.30.628,lexdecspan,2020.1.2,Win32,60,0,46,46,46,1,blocks/block_47.xlsx
,,,,,,,,left,1,5.626,0,0,0,7,1,tartáló,48,left,5114,Nő,1989.05.09.,20,2020-09-22_12h01.30.628,lexdecspan,2020.1.2,Win32,60,,,,,,
,,,,,,,,right,1,1.275,0,1,1,2,1,rajcsúroz,48,right,5114,Nő,1989.05.09.,20,2020-09-22_12h01.30.628,lexdecspan,2020.1.2,Win32,60,,,,,,
,,,,,,,,,,,,,,,,,,,5114,Nő,1989.05.09.,20,2020-09-22_12h01.30.628,lexdecspan,2020.1.2,Win32,60,0,47,47,47,1,blocks/block_48.xlsx
,,,,,,,,left,1,1.22,0,0,0,20,1,ószeven,49,left,5114,Nő,1989.05.09.,20,2020-09-22_12h01.30.628,lexdecspan,2020.1.2,Win32,60,,,,,,
,,,,,,,,right,1,1.666,0,1,1,8,1,inspekcióz,49,right,5114,Nő,1989.05.09.,20,2020-09-22_12h01.30.628,lexdecspan,2020.1.2,Win32,60,,,,,,
,,,,,,,,,,,,,,,,,,,5114,Nő,1989.05.09.,20,2020-09-22_12h01.30.628,lexdecspan,2020.1.2,Win32,60,0,48,48,48,1,blocks/block_49.xlsx
,,,,,,,,right,1,1.639,0,0,0,8,1,párnásszék,50,right,5114,Nő,1989.05.09.,20,2020-09-22_12h01.30.628,lexdecspan,2020.1.2,Win32,60,,,,,,
,,,,,,,,right,1,1.488,0,1,1,20,1,halmajonéz,50,right,5114,Nő,1989.05.09.,20,2020-09-22_12h01.30.628,lexdecspan,2020.1.2,Win32,60,,,,,,
