ready2.keys,ready2.rt,key_resp.keys,key_resp.rt,key_resp_2.keys,key_resp_2.rt,ready3.keys,ready3.rt,resp.keys,resp.corr,resp.rt,within_block.thisRepN,within_block.thisTrialN,within_block.thisN,within_block.thisIndex,within_block.ran,word,difficulty,correct_answer,Azonosító,Az Ön neme,Születési éve,Hány évet töltött az iskolapadban (egyetemet is beleértve),date,expName,psychopyVersion,OS,frameRate,trials.thisRepN,trials.thisTrialN,trials.thisN,trials.thisIndex,trials.ran,block_names
right,30.573,right,2.451,left,1.754,right,8.292,left,1,2.685,0,0,0,7,1,szigon,1,left,5209,nö,2004,10,2020-10-16_20h59.40.914,lexdecspan,2020.1.2,Win32,60,,,,,,
,,,,,,,,right,1,1.128,0,1,1,21,1,komoly,1,right,5209,nö,2004,10,2020-10-16_20h59.40.914,lexdecspan,2020.1.2,Win32,60,,,,,,
,,,,,,,,,,,,,,,,,,,5209,nö,2004,10,2020-10-16_20h59.40.914,lexdecspan,2020.1.2,Win32,60,0,0,0,0,1,blocks/block_1.xlsx
,,,,,,,,left,1,2.458,0,0,0,23,1,átrális,2,left,5209,nö,2004,10,2020-10-16_20h59.40.914,lexdecspan,2020.1.2,Win32,60,,,,,,
,,,,,,,,right,1,0.839,0,1,1,5,1,gyerek,2,right,5209,nö,2004,10,2020-10-16_20h59.40.914,lexdecspan,2020.1.2,Win32,60,,,,,,
,,,,,,,,,,,,,,,,,,,5209,nö,2004,10,2020-10-16_20h59.40.914,lexdecspan,2020.1.2,Win32,60,0,1,1,1,1,blocks/block_2.xlsx
,,,,,,,,left,1,1.974,0,0,0,0,1,bolyodás,3,left,5209,nö,2004,10,2020-10-16_20h59.40.914,lexdecspan,2020.1.2,Win32,60,,,,,,
,,,,,,,,right,1,0.993,0,1,1,2,1,esemény,3,right,5209,nö,2004,10,2020-10-16_20h59.40.914,lexdecspan,2020.1.2,Win32,60,,,,,,
,,,,,,,,,,,,,,,,,,,5209,nö,2004,10,2020-10-16_20h59.40.914,lexdecspan,2020.1.2,Win32,60,0,2,2,2,1,blocks/block_3.xlsx
,,,,,,,,left,1,1.879,0,0,0,21,1,üvesi,4,left,5209,nö,2004,10,2020-10-16_20h59.40.914,lexdecspan,2020.1.2,Win32,60,,,,,,
,,,,,,,,left,1,2.749,0,1,1,20,1,néghajóti,4,left,5209,nö,2004,10,2020-10-16_20h59.40.914,lexdecspan,2020.1.2,Win32,60,,,,,,
,,,,,,,,,,,,,,,,,,,5209,nö,2004,10,2020-10-16_20h59.40.914,lexdecspan,2020.1.2,Win32,60,0,3,3,3,1,blocks/block_4.xlsx
,,,,,,,,right,1,0.932,0,0,0,17,1,siker,5,right,5209,nö,2004,10,2020-10-16_20h59.40.914,lexdecspan,2020.1.2,Win32,60,,,,,,
,,,,,,,,right,1,0.793,0,1,1,6,1,hatalom,5,right,5209,nö,2004,10,2020-10-16_20h59.40.914,lexdecspan,2020.1.2,Win32,60,,,,,,
,,,,,,,,,,,,,,,,,,,5209,nö,2004,10,2020-10-16_20h59.40.914,lexdecspan,2020.1.2,Win32,60,0,4,4,4,1,blocks/block_5.xlsx
,,,,,,,,right,1,1.4,0,0,0,16,1,könyvtár,6,right,5209,nö,2004,10,2020-10-16_20h59.40.914,lexdecspan,2020.1.2,Win32,60,,,,,,
,,,,,,,,right,1,1.927,0,1,1,10,1,optimális,6,right,5209,nö,2004,10,2020-10-16_20h59.40.914,lexdecspan,2020.1.2,Win32,60,,,,,,
,,,,,,,,,,,,,,,,,,,5209,nö,2004,10,2020-10-16_20h59.40.914,lexdecspan,2020.1.2,Win32,60,0,5,5,5,1,blocks/block_6.xlsx
,,,,,,,,left,1,3.252,0,0,0,5,1,kiskolható,7,left,5209,nö,2004,10,2020-10-16_20h59.40.914,lexdecspan,2020.1.2,Win32,60,,,,,,
,,,,,,,,right,1,0.738,0,1,1,1,1,tenger,7,right,5209,nö,2004,10,2020-10-16_20h59.40.914,lexdecspan,2020.1.2,Win32,60,,,,,,
,,,,,,,,,,,,,,,,,,,5209,nö,2004,10,2020-10-16_20h59.40.914,lexdecspan,2020.1.2,Win32,60,0,6,6,6,1,blocks/block_7.xlsx
,,,,,,,,right,1,0.775,0,0,0,8,1,extrém,8,right,5209,nö,2004,10,2020-10-16_20h59.40.914,lexdecspan,2020.1.2,Win32,60,,,,,,
,,,,,,,,left,1,5.971,0,1,1,1,1,átütésetti,8,left,5209,nö,2004,10,2020-10-16_20h59.40.914,lexdecspan,2020.1.2,Win32,60,,,,,,
,,,,,,,,,,,,,,,,,,,5209,nö,2004,10,2020-10-16_20h59.40.914,lexdecspan,2020.1.2,Win32,60,0,7,7,7,1,blocks/block_8.xlsx
,,,,,,,,right,1,1.123,0,0,0,9,1,remény,9,right,5209,nö,2004,10,2020-10-16_20h59.40.914,lexdecspan,2020.1.2,Win32,60,,,,,,
,,,,,,,,right,1,2.06,0,1,1,6,1,reagál,9,right,5209,nö,2004,10,2020-10-16_20h59.40.914,lexdecspan,2020.1.2,Win32,60,,,,,,
,,,,,,,,,,,,,,,,,,,5209,nö,2004,10,2020-10-16_20h59.40.914,lexdecspan,2020.1.2,Win32,60,0,8,8,8,1,blocks/block_9.xlsx
,,,,,,,,right,1,1.126,0,0,0,8,1,dán,10,right,5209,nö,2004,10,2020-10-16_20h59.40.914,lexdecspan,2020.1.2,Win32,60,,,,,,
,,,,,,,,right,1,0.64,0,1,1,19,1,trend,10,right,5209,nö,2004,10,2020-10-16_20h59.40.914,lexdecspan,2020.1.2,Win32,60,,,,,,
,,,,,,,,,,,,,,,,,,,5209,nö,2004,10,2020-10-16_20h59.40.914,lexdecspan,2020.1.2,Win32,60,0,9,9,9,1,blocks/block_10.xlsx
,,,,,,,,right,1,0.755,0,0,0,16,1,beton,11,right,5209,nö,2004,10,2020-10-16_20h59.40.914,lexdecspan,2020.1.2,Win32,60,,,,,,
,,,,,,,,right,1,1.545,0,1,1,21,1,vád,11,right,5209,nö,2004,10,2020-10-16_20h59.40.914,lexdecspan,2020.1.2,Win32,60,,,,,,
,,,,,,,,,,,,,,,,,,,5209,nö,2004,10,2020-10-16_20h59.40.914,lexdecspan,2020.1.2,Win32,60,0,10,10,10,1,blocks/block_11.xlsx
,,,,,,,,right,1,1.626,0,0,0,0,1,gyárt,12,right,5209,nö,2004,10,2020-10-16_20h59.40.914,lexdecspan,2020.1.2,Win32,60,,,,,,
,,,,,,,,right,1,1.196,0,1,1,12,1,pogány,12,right,5209,nö,2004,10,2020-10-16_20h59.40.914,lexdecspan,2020.1.2,Win32,60,,,,,,
,,,,,,,,,,,,,,,,,,,5209,nö,2004,10,2020-10-16_20h59.40.914,lexdecspan,2020.1.2,Win32,60,0,11,11,11,1,blocks/block_12.xlsx
,,,,,,,,right,1,0.91,0,0,0,23,1,lebeg,13,right,5209,nö,2004,10,2020-10-16_20h59.40.914,lexdecspan,2020.1.2,Win32,60,,,,,,
,,,,,,,,right,1,2.115,0,1,1,8,1,turné,13,right,5209,nö,2004,10,2020-10-16_20h59.40.914,lexdecspan,2020.1.2,Win32,60,,,,,,
,,,,,,,,,,,,,,,,,,,5209,nö,2004,10,2020-10-16_20h59.40.914,lexdecspan,2020.1.2,Win32,60,0,12,12,12,1,blocks/block_13.xlsx
,,,,,,,,right,1,1.277,0,0,0,11,1,diktátor,14,right,5209,nö,2004,10,2020-10-16_20h59.40.914,lexdecspan,2020.1.2,Win32,60,,,,,,
,,,,,,,,right,1,1.067,0,1,1,5,1,szobrász,14,right,5209,nö,2004,10,2020-10-16_20h59.40.914,lexdecspan,2020.1.2,Win32,60,,,,,,
,,,,,,,,,,,,,,,,,,,5209,nö,2004,10,2020-10-16_20h59.40.914,lexdecspan,2020.1.2,Win32,60,0,13,13,13,1,blocks/block_14.xlsx
,,,,,,,,right,1,1.469,0,0,0,13,1,rak,15,right,5209,nö,2004,10,2020-10-16_20h59.40.914,lexdecspan,2020.1.2,Win32,60,,,,,,
,,,,,,,,right,1,2.041,0,1,1,20,1,zártkörű,15,right,5209,nö,2004,10,2020-10-16_20h59.40.914,lexdecspan,2020.1.2,Win32,60,,,,,,
,,,,,,,,,,,,,,,,,,,5209,nö,2004,10,2020-10-16_20h59.40.914,lexdecspan,2020.1.2,Win32,60,0,14,14,14,1,blocks/block_15.xlsx
,,,,,,,,right,1,1.159,0,0,0,12,1,ólom,16,right,5209,nö,2004,10,2020-10-16_20h59.40.914,lexdecspan,2020.1.2,Win32,60,,,,,,
,,,,,,,,right,1,2.586,0,1,1,1,1,égitest,16,right,5209,nö,2004,10,2020-10-16_20h59.40.914,lexdecspan,2020.1.2,Win32,60,,,,,,
,,,,,,,,,,,,,,,,,,,5209,nö,2004,10,2020-10-16_20h59.40.914,lexdecspan,2020.1.2,Win32,60,0,15,15,15,1,blocks/block_16.xlsx
,,,,,,,,right,1,3.283,0,0,0,7,1,értékesít,17,right,5209,nö,2004,10,2020-10-16_20h59.40.914,lexdecspan,2020.1.2,Win32,60,,,,,,
,,,,,,,,right,1,2.728,0,1,1,10,1,napkollektor,17,right,5209,nö,2004,10,2020-10-16_20h59.40.914,lexdecspan,2020.1.2,Win32,60,,,,,,
,,,,,,,,,,,,,,,,,,,5209,nö,2004,10,2020-10-16_20h59.40.914,lexdecspan,2020.1.2,Win32,60,0,16,16,16,1,blocks/block_17.xlsx
,,,,,,,,left,1,1.52,0,0,0,18,1,taszt,18,left,5209,nö,2004,10,2020-10-16_20h59.40.914,lexdecspan,2020.1.2,Win32,60,,,,,,
,,,,,,,,right,1,1.808,0,1,1,4,1,lépték,18,right,5209,nö,2004,10,2020-10-16_20h59.40.914,lexdecspan,2020.1.2,Win32,60,,,,,,
,,,,,,,,,,,,,,,,,,,5209,nö,2004,10,2020-10-16_20h59.40.914,lexdecspan,2020.1.2,Win32,60,0,17,17,17,1,blocks/block_18.xlsx
,,,,,,,,right,1,1.183,0,0,0,21,1,zörög,19,right,5209,nö,2004,10,2020-10-16_20h59.40.914,lexdecspan,2020.1.2,Win32,60,,,,,,
,,,,,,,,right,1,1.495,0,1,1,4,1,könnyelmű,19,right,5209,nö,2004,10,2020-10-16_20h59.40.914,lexdecspan,2020.1.2,Win32,60,,,,,,
,,,,,,,,,,,,,,,,,,,5209,nö,2004,10,2020-10-16_20h59.40.914,lexdecspan,2020.1.2,Win32,60,0,18,18,18,1,blocks/block_19.xlsx
,,,,,,,,left,0,3.926,0,0,0,19,1,sárgaréz,20,right,5209,nö,2004,10,2020-10-16_20h59.40.914,lexdecspan,2020.1.2,Win32,60,,,,,,
,,,,,,,,left,0,1.548,0,1,1,7,1,fon,20,right,5209,nö,2004,10,2020-10-16_20h59.40.914,lexdecspan,2020.1.2,Win32,60,,,,,,
,,,,,,,,left,0,4.027,0,2,2,22,1,holografikus,20,right,5209,nö,2004,10,2020-10-16_20h59.40.914,lexdecspan,2020.1.2,Win32,60,,,,,,
,,,,,,,,,,,,,,,,,,,5209,nö,2004,10,2020-10-16_20h59.40.914,lexdecspan,2020.1.2,Win32,60,0,19,19,19,1,blocks/block_20.xlsx
,,,,,,,,left,0,1.661,0,0,0,7,1,cáfol,21,right,5209,nö,2004,10,2020-10-16_20h59.40.914,lexdecspan,2020.1.2,Win32,60,,,,,,
,,,,,,,,right,1,1.803,0,1,1,2,1,fűtőanyag,21,right,5209,nö,2004,10,2020-10-16_20h59.40.914,lexdecspan,2020.1.2,Win32,60,,,,,,
,,,,,,,,right,1,1.269,0,2,2,19,1,tanácsol,21,right,5209,nö,2004,10,2020-10-16_20h59.40.914,lexdecspan,2020.1.2,Win32,60,,,,,,
,,,,,,,,,,,,,,,,,,,5209,nö,2004,10,2020-10-16_20h59.40.914,lexdecspan,2020.1.2,Win32,60,0,20,20,20,1,blocks/block_21.xlsx
,,,,,,,,right,1,1.308,0,0,0,15,1,nárcisz,22,right,5209,nö,2004,10,2020-10-16_20h59.40.914,lexdecspan,2020.1.2,Win32,60,,,,,,
,,,,,,,,right,1,1.427,0,1,1,14,1,szokik,22,right,5209,nö,2004,10,2020-10-16_20h59.40.914,lexdecspan,2020.1.2,Win32,60,,,,,,
,,,,,,,,,,,,,,,,,,,5209,nö,2004,10,2020-10-16_20h59.40.914,lexdecspan,2020.1.2,Win32,60,0,21,21,21,1,blocks/block_22.xlsx
,,,,,,,,left,1,1.706,0,0,0,9,1,csatkó,23,left,5209,nö,2004,10,2020-10-16_20h59.40.914,lexdecspan,2020.1.2,Win32,60,,,,,,
,,,,,,,,right,1,6.88,0,1,1,18,1,camembert,23,right,5209,nö,2004,10,2020-10-16_20h59.40.914,lexdecspan,2020.1.2,Win32,60,,,,,,
,,,,,,,,,,,,,,,,,,,5209,nö,2004,10,2020-10-16_20h59.40.914,lexdecspan,2020.1.2,Win32,60,0,22,22,22,1,blocks/block_23.xlsx
,,,,,,,,right,1,1.59,0,0,0,20,1,csatázik,24,right,5209,nö,2004,10,2020-10-16_20h59.40.914,lexdecspan,2020.1.2,Win32,60,,,,,,
,,,,,,,,right,1,2.362,0,1,1,12,1,tanrend,24,right,5209,nö,2004,10,2020-10-16_20h59.40.914,lexdecspan,2020.1.2,Win32,60,,,,,,
,,,,,,,,,,,,,,,,,,,5209,nö,2004,10,2020-10-16_20h59.40.914,lexdecspan,2020.1.2,Win32,60,0,23,23,23,1,blocks/block_24.xlsx
,,,,,,,,right,1,1.798,0,0,0,18,1,tipográfus,25,right,5209,nö,2004,10,2020-10-16_20h59.40.914,lexdecspan,2020.1.2,Win32,60,,,,,,
,,,,,,,,left,1,1.92,0,1,1,2,1,felezéri,25,left,5209,nö,2004,10,2020-10-16_20h59.40.914,lexdecspan,2020.1.2,Win32,60,,,,,,
,,,,,,,,,,,,,,,,,,,5209,nö,2004,10,2020-10-16_20h59.40.914,lexdecspan,2020.1.2,Win32,60,0,24,24,24,1,blocks/block_25.xlsx
,,,,,,,,left,1,1.571,0,0,0,9,1,konfirki,26,left,5209,nö,2004,10,2020-10-16_20h59.40.914,lexdecspan,2020.1.2,Win32,60,,,,,,
,,,,,,,,left,0,2.519,0,1,1,18,1,revelatív,26,right,5209,nö,2004,10,2020-10-16_20h59.40.914,lexdecspan,2020.1.2,Win32,60,,,,,,
,,,,,,,,left,0,1.926,0,2,2,4,1,slendrián,26,right,5209,nö,2004,10,2020-10-16_20h59.40.914,lexdecspan,2020.1.2,Win32,60,,,,,,
,,,,,,,,right,1,1.446,0,3,3,17,1,dermeszt,26,right,5209,nö,2004,10,2020-10-16_20h59.40.914,lexdecspan,2020.1.2,Win32,60,,,,,,
,,,,,,,,,,,,,,,,,,,5209,nö,2004,10,2020-10-16_20h59.40.914,lexdecspan,2020.1.2,Win32,60,0,25,25,25,1,blocks/block_26.xlsx
,,,,,,,,left,1,6.007,0,0,0,7,1,összalaj,27,left,5209,nö,2004,10,2020-10-16_20h59.40.914,lexdecspan,2020.1.2,Win32,60,,,,,,
,,,,,,,,right,1,2.155,0,1,1,18,1,részletez,27,right,5209,nö,2004,10,2020-10-16_20h59.40.914,lexdecspan,2020.1.2,Win32,60,,,,,,
,,,,,,,,,,,,,,,,,,,5209,nö,2004,10,2020-10-16_20h59.40.914,lexdecspan,2020.1.2,Win32,60,0,26,26,26,1,blocks/block_27.xlsx
,,,,,,,,right,1,2.443,0,0,0,1,1,nehézsúly,28,right,5209,nö,2004,10,2020-10-16_20h59.40.914,lexdecspan,2020.1.2,Win32,60,,,,,,
,,,,,,,,right,1,1.081,0,1,1,11,1,műt,28,right,5209,nö,2004,10,2020-10-16_20h59.40.914,lexdecspan,2020.1.2,Win32,60,,,,,,
,,,,,,,,,,,,,,,,,,,5209,nö,2004,10,2020-10-16_20h59.40.914,lexdecspan,2020.1.2,Win32,60,0,27,27,27,1,blocks/block_28.xlsx
,,,,,,,,right,1,1.067,0,0,0,16,1,marcangol,29,right,5209,nö,2004,10,2020-10-16_20h59.40.914,lexdecspan,2020.1.2,Win32,60,,,,,,
,,,,,,,,right,1,1.959,0,1,1,17,1,mimézis,29,right,5209,nö,2004,10,2020-10-16_20h59.40.914,lexdecspan,2020.1.2,Win32,60,,,,,,
,,,,,,,,,,,,,,,,,,,5209,nö,2004,10,2020-10-16_20h59.40.914,lexdecspan,2020.1.2,Win32,60,0,28,28,28,1,blocks/block_29.xlsx
,,,,,,,,left,1,1.151,0,0,0,15,1,lező,30,left,5209,nö,2004,10,2020-10-16_20h59.40.914,lexdecspan,2020.1.2,Win32,60,,,,,,
,,,,,,,,left,0,1.805,0,1,1,21,1,elegy,30,right,5209,nö,2004,10,2020-10-16_20h59.40.914,lexdecspan,2020.1.2,Win32,60,,,,,,
,,,,,,,,left,1,3.091,0,2,2,1,1,gádosíthat,30,left,5209,nö,2004,10,2020-10-16_20h59.40.914,lexdecspan,2020.1.2,Win32,60,,,,,,
,,,,,,,,,,,,,,,,,,,5209,nö,2004,10,2020-10-16_20h59.40.914,lexdecspan,2020.1.2,Win32,60,0,29,29,29,1,blocks/block_30.xlsx
,,,,,,,,right,1,2.409,0,0,0,5,1,lícium,31,right,5209,nö,2004,10,2020-10-16_20h59.40.914,lexdecspan,2020.1.2,Win32,60,,,,,,
,,,,,,,,left,1,2.363,0,1,1,13,1,vicsadomás,31,left,5209,nö,2004,10,2020-10-16_20h59.40.914,lexdecspan,2020.1.2,Win32,60,,,,,,
,,,,,,,,,,,,,,,,,,,5209,nö,2004,10,2020-10-16_20h59.40.914,lexdecspan,2020.1.2,Win32,60,0,30,30,30,1,blocks/block_31.xlsx
,,,,,,,,left,0,1.191,0,0,0,23,1,bajadér,32,right,5209,nö,2004,10,2020-10-16_20h59.40.914,lexdecspan,2020.1.2,Win32,60,,,,,,
,,,,,,,,left,0,1.816,0,1,1,16,1,vasáru,32,right,5209,nö,2004,10,2020-10-16_20h59.40.914,lexdecspan,2020.1.2,Win32,60,,,,,,
,,,,,,,,right,1,3.456,0,2,2,11,1,ötletdús,32,right,5209,nö,2004,10,2020-10-16_20h59.40.914,lexdecspan,2020.1.2,Win32,60,,,,,,
,,,,,,,,left,0,3.125,0,3,3,3,1,csőszház,32,right,5209,nö,2004,10,2020-10-16_20h59.40.914,lexdecspan,2020.1.2,Win32,60,,,,,,
,,,,,,,,,,,,,,,,,,,5209,nö,2004,10,2020-10-16_20h59.40.914,lexdecspan,2020.1.2,Win32,60,0,31,31,31,1,blocks/block_32.xlsx
,,,,,,,,left,1,1.811,0,0,0,22,1,majánosol,33,left,5209,nö,2004,10,2020-10-16_20h59.40.914,lexdecspan,2020.1.2,Win32,60,,,,,,
,,,,,,,,left,1,1.823,0,1,1,3,1,spratika,33,left,5209,nö,2004,10,2020-10-16_20h59.40.914,lexdecspan,2020.1.2,Win32,60,,,,,,
,,,,,,,,,,,,,,,,,,,5209,nö,2004,10,2020-10-16_20h59.40.914,lexdecspan,2020.1.2,Win32,60,0,32,32,32,1,blocks/block_33.xlsx
,,,,,,,,left,0,4.276,0,0,0,6,1,szemestakarmány,34,right,5209,nö,2004,10,2020-10-16_20h59.40.914,lexdecspan,2020.1.2,Win32,60,,,,,,
,,,,,,,,right,1,2.813,0,1,1,9,1,levélnehezék,34,right,5209,nö,2004,10,2020-10-16_20h59.40.914,lexdecspan,2020.1.2,Win32,60,,,,,,
,,,,,,,,left,0,1.973,0,2,2,14,1,paláver,34,right,5209,nö,2004,10,2020-10-16_20h59.40.914,lexdecspan,2020.1.2,Win32,60,,,,,,
,,,,,,,,right,1,2.887,0,3,3,19,1,fókabőr,34,right,5209,nö,2004,10,2020-10-16_20h59.40.914,lexdecspan,2020.1.2,Win32,60,,,,,,
,,,,,,,,,,,,,,,,,,,5209,nö,2004,10,2020-10-16_20h59.40.914,lexdecspan,2020.1.2,Win32,60,0,33,33,33,1,blocks/block_34.xlsx
,,,,,,,,right,1,3.358,0,0,0,2,1,állótükör,35,right,5209,nö,2004,10,2020-10-16_20h59.40.914,lexdecspan,2020.1.2,Win32,60,,,,,,
,,,,,,,,left,0,2.861,0,1,1,8,1,szolúbilis,35,right,5209,nö,2004,10,2020-10-16_20h59.40.914,lexdecspan,2020.1.2,Win32,60,,,,,,
,,,,,,,,left,0,1.783,0,2,2,6,1,gór,35,right,5209,nö,2004,10,2020-10-16_20h59.40.914,lexdecspan,2020.1.2,Win32,60,,,,,,
,,,,,,,,right,1,1.857,0,3,3,1,1,luftballon,35,right,5209,nö,2004,10,2020-10-16_20h59.40.914,lexdecspan,2020.1.2,Win32,60,,,,,,
,,,,,,,,,,,,,,,,,,,5209,nö,2004,10,2020-10-16_20h59.40.914,lexdecspan,2020.1.2,Win32,60,0,34,34,34,1,blocks/block_35.xlsx
,,,,,,,,right,1,2.362,0,0,0,19,1,áruszállítmány,36,right,5209,nö,2004,10,2020-10-16_20h59.40.914,lexdecspan,2020.1.2,Win32,60,,,,,,
,,,,,,,,left,0,2.533,0,1,1,10,1,sziksófű,36,right,5209,nö,2004,10,2020-10-16_20h59.40.914,lexdecspan,2020.1.2,Win32,60,,,,,,
,,,,,,,,left,1,1.574,0,2,2,23,1,terpad,36,left,5209,nö,2004,10,2020-10-16_20h59.40.914,lexdecspan,2020.1.2,Win32,60,,,,,,
,,,,,,,,,,,,,,,,,,,5209,nö,2004,10,2020-10-16_20h59.40.914,lexdecspan,2020.1.2,Win32,60,0,35,35,35,1,blocks/block_36.xlsx
,,,,,,,,left,0,2.351,0,0,0,15,1,bágyaszt,37,right,5209,nö,2004,10,2020-10-16_20h59.40.914,lexdecspan,2020.1.2,Win32,60,,,,,,
,,,,,,,,left,0,2.052,0,1,1,18,1,orront,37,right,5209,nö,2004,10,2020-10-16_20h59.40.914,lexdecspan,2020.1.2,Win32,60,,,,,,
,,,,,,,,left,1,1.757,0,2,2,19,1,kajakusz,37,left,5209,nö,2004,10,2020-10-16_20h59.40.914,lexdecspan,2020.1.2,Win32,60,,,,,,
,,,,,,,,right,1,1.973,0,3,3,2,1,csöndesedik,37,right,5209,nö,2004,10,2020-10-16_20h59.40.914,lexdecspan,2020.1.2,Win32,60,,,,,,
,,,,,,,,,,,,,,,,,,,5209,nö,2004,10,2020-10-16_20h59.40.914,lexdecspan,2020.1.2,Win32,60,0,36,36,36,1,blocks/block_37.xlsx
,,,,,,,,left,1,1.522,0,0,0,12,1,csenyei,38,left,5209,nö,2004,10,2020-10-16_20h59.40.914,lexdecspan,2020.1.2,Win32,60,,,,,,
,,,,,,,,right,1,6.689,0,1,1,8,1,szedelődzködik,38,right,5209,nö,2004,10,2020-10-16_20h59.40.914,lexdecspan,2020.1.2,Win32,60,,,,,,
,,,,,,,,,,,,,,,,,,,5209,nö,2004,10,2020-10-16_20h59.40.914,lexdecspan,2020.1.2,Win32,60,0,37,37,37,1,blocks/block_38.xlsx
,,,,,,,,left,1,1.88,0,0,0,10,1,pósfalmár,39,left,5209,nö,2004,10,2020-10-16_20h59.40.914,lexdecspan,2020.1.2,Win32,60,,,,,,
,,,,,,,,left,0,1.901,0,1,1,12,1,kurtít,39,right,5209,nö,2004,10,2020-10-16_20h59.40.914,lexdecspan,2020.1.2,Win32,60,,,,,,
,,,,,,,,right,1,1.541,0,2,2,14,1,kihalász,39,right,5209,nö,2004,10,2020-10-16_20h59.40.914,lexdecspan,2020.1.2,Win32,60,,,,,,
,,,,,,,,,,,,,,,,,,,5209,nö,2004,10,2020-10-16_20h59.40.914,lexdecspan,2020.1.2,Win32,60,0,38,38,38,1,blocks/block_39.xlsx
,,,,,,,,left,0,1.572,0,0,0,11,1,szolmizál,40,right,5209,nö,2004,10,2020-10-16_20h59.40.914,lexdecspan,2020.1.2,Win32,60,,,,,,
,,,,,,,,left,0,3.531,0,1,1,4,1,füvesít,40,right,5209,nö,2004,10,2020-10-16_20h59.40.914,lexdecspan,2020.1.2,Win32,60,,,,,,
,,,,,,,,left,1,1.841,0,2,2,16,1,karnogó,40,left,5209,nö,2004,10,2020-10-16_20h59.40.914,lexdecspan,2020.1.2,Win32,60,,,,,,
,,,,,,,,left,0,3.691,0,3,3,1,1,igásjószág,40,right,5209,nö,2004,10,2020-10-16_20h59.40.914,lexdecspan,2020.1.2,Win32,60,,,,,,
,,,,,,,,,,,,,,,,,,,5209,nö,2004,10,2020-10-16_20h59.40.914,lexdecspan,2020.1.2,Win32,60,0,39,39,39,1,blocks/block_40.xlsx
,,,,,,,,right,1,2.03,0,0,0,2,1,lakotthely,41,right,5209,nö,2004,10,2020-10-16_20h59.40.914,lexdecspan,2020.1.2,Win32,60,,,,,,
,,,,,,,,left,1,1.287,0,1,1,13,1,stalp,41,left,5209,nö,2004,10,2020-10-16_20h59.40.914,lexdecspan,2020.1.2,Win32,60,,,,,,
,,,,,,,,,,,,,,,,,,,5209,nö,2004,10,2020-10-16_20h59.40.914,lexdecspan,2020.1.2,Win32,60,0,40,40,40,1,blocks/block_41.xlsx
,,,,,,,,left,0,3.91,0,0,0,13,1,katéterez,42,right,5209,nö,2004,10,2020-10-16_20h59.40.914,lexdecspan,2020.1.2,Win32,60,,,,,,
,,,,,,,,left,1,2.045,0,1,1,6,1,sűrítható,42,left,5209,nö,2004,10,2020-10-16_20h59.40.914,lexdecspan,2020.1.2,Win32,60,,,,,,
,,,,,,,,left,1,2.145,0,2,2,2,1,ellagcse,42,left,5209,nö,2004,10,2020-10-16_20h59.40.914,lexdecspan,2020.1.2,Win32,60,,,,,,
,,,,,,,,,,,,,,,,,,,5209,nö,2004,10,2020-10-16_20h59.40.914,lexdecspan,2020.1.2,Win32,60,0,41,41,41,1,blocks/block_42.xlsx
,,,,,,,,left,0,3.444,0,0,0,13,1,hejehujázik,43,right,5209,nö,2004,10,2020-10-16_20h59.40.914,lexdecspan,2020.1.2,Win32,60,,,,,,
,,,,,,,,left,0,2.673,0,1,1,17,1,csüggedez,43,right,5209,nö,2004,10,2020-10-16_20h59.40.914,lexdecspan,2020.1.2,Win32,60,,,,,,
,,,,,,,,right,1,2.81,0,2,2,8,1,homoktölcsér,43,right,5209,nö,2004,10,2020-10-16_20h59.40.914,lexdecspan,2020.1.2,Win32,60,,,,,,
,,,,,,,,right,1,2.591,0,3,3,16,1,nimbus,43,right,5209,nö,2004,10,2020-10-16_20h59.40.914,lexdecspan,2020.1.2,Win32,60,,,,,,
,,,,,,,,,,,,,,,,,,,5209,nö,2004,10,2020-10-16_20h59.40.914,lexdecspan,2020.1.2,Win32,60,0,42,42,42,1,blocks/block_43.xlsx
,,,,,,,,right,1,4.091,0,0,0,0,1,elméskedik,44,right,5209,nö,2004,10,2020-10-16_20h59.40.914,lexdecspan,2020.1.2,Win32,60,,,,,,
,,,,,,,,left,1,2.995,0,1,1,22,1,takorák,44,left,5209,nö,2004,10,2020-10-16_20h59.40.914,lexdecspan,2020.1.2,Win32,60,,,,,,
,,,,,,,,,,,,,,,,,,,5209,nö,2004,10,2020-10-16_20h59.40.914,lexdecspan,2020.1.2,Win32,60,0,43,43,43,1,blocks/block_44.xlsx
,,,,,,,,right,1,1.978,0,0,0,14,1,konverzál,45,right,5209,nö,2004,10,2020-10-16_20h59.40.914,lexdecspan,2020.1.2,Win32,60,,,,,,
,,,,,,,,right,1,2.314,0,1,1,9,1,hátall,45,right,5209,nö,2004,10,2020-10-16_20h59.40.914,lexdecspan,2020.1.2,Win32,60,,,,,,
,,,,,,,,,,,,,,,,,,,5209,nö,2004,10,2020-10-16_20h59.40.914,lexdecspan,2020.1.2,Win32,60,0,44,44,44,1,blocks/block_45.xlsx
,,,,,,,,right,1,2.58,0,0,0,15,1,pauzál,46,right,5209,nö,2004,10,2020-10-16_20h59.40.914,lexdecspan,2020.1.2,Win32,60,,,,,,
,,,,,,,,left,1,1.544,0,1,1,10,1,csüggöny,46,left,5209,nö,2004,10,2020-10-16_20h59.40.914,lexdecspan,2020.1.2,Win32,60,,,,,,
,,,,,,,,,,,,,,,,,,,5209,nö,2004,10,2020-10-16_20h59.40.914,lexdecspan,2020.1.2,Win32,60,0,45,45,45,1,blocks/block_46.xlsx
,,,,,,,,left,0,2.795,0,0,0,4,1,disszertál,47,right,5209,nö,2004,10,2020-10-16_20h59.40.914,lexdecspan,2020.1.2,Win32,60,,,,,,
,,,,,,,,left,0,1.4,0,1,1,12,1,rámáz,47,right,5209,nö,2004,10,2020-10-16_20h59.40.914,lexdecspan,2020.1.2,Win32,60,,,,,,
,,,,,,,,left,0,2.599,0,2,2,7,1,hantáz,47,right,5209,nö,2004,10,2020-10-16_20h59.40.914,lexdecspan,2020.1.2,Win32,60,,,,,,
,,,,,,,,,,,,,,,,,,,5209,nö,2004,10,2020-10-16_20h59.40.914,lexdecspan,2020.1.2,Win32,60,0,46,46,46,1,blocks/block_47.xlsx
,,,,,,,,left,0,2.147,0,0,0,13,1,pilinckézik,48,right,5209,nö,2004,10,2020-10-16_20h59.40.914,lexdecspan,2020.1.2,Win32,60,,,,,,
,,,,,,,,right,1,2.524,0,1,1,14,1,különszakasz,48,right,5209,nö,2004,10,2020-10-16_20h59.40.914,lexdecspan,2020.1.2,Win32,60,,,,,,
,,,,,,,,left,0,4.089,0,2,2,23,1,desszertestál,48,right,5209,nö,2004,10,2020-10-16_20h59.40.914,lexdecspan,2020.1.2,Win32,60,,,,,,
,,,,,,,,left,0,2.705,0,3,3,8,1,nyűvődik,48,right,5209,nö,2004,10,2020-10-16_20h59.40.914,lexdecspan,2020.1.2,Win32,60,,,,,,
