ready2.keys,ready2.rt,key_resp.keys,key_resp.rt,key_resp_2.keys,key_resp_2.rt,ready3.keys,ready3.rt,resp.keys,resp.corr,resp.rt,within_block.thisRepN,within_block.thisTrialN,within_block.thisN,within_block.thisIndex,within_block.ran,word,difficulty,correct_answer,Azonosító,Az Ön neme,Születési éve,Hány évet töltött az iskolapadban (egyetemet is beleértve),date,expName,psychopyVersion,OS,frameRate,trials.thisRepN,trials.thisTrialN,trials.thisN,trials.thisIndex,trials.ran,block_names
right,11.219,right,1.146,left,1.625,up,8.644,left,1,3.356,0,0,0,10,1,címelés,1,left,5020,Férfi,1996,17,2020-09-30_09h37.43.100,lexdecspan,2020.1.2,Win32,60,,,,,,
,,,,,,,,right,1,1.112,0,1,1,1,1,szeptember,1,right,5020,Férfi,1996,17,2020-09-30_09h37.43.100,lexdecspan,2020.1.2,Win32,60,,,,,,
,,,,,,,,,,,,,,,,,,,5020,Férfi,1996,17,2020-09-30_09h37.43.100,lexdecspan,2020.1.2,Win32,60,0,0,0,0,1,blocks/block_1.xlsx
,,,,,,,,right,1,0.598,0,0,0,1,1,tér,2,right,5020,Férfi,1996,17,2020-09-30_09h37.43.100,lexdecspan,2020.1.2,Win32,60,,,,,,
,,,,,,,,right,1,0.645,0,1,1,12,1,cím,2,right,5020,Férfi,1996,17,2020-09-30_09h37.43.100,lexdecspan,2020.1.2,Win32,60,,,,,,
,,,,,,,,,,,,,,,,,,,5020,Férfi,1996,17,2020-09-30_09h37.43.100,lexdecspan,2020.1.2,Win32,60,0,1,1,1,1,blocks/block_2.xlsx
,,,,,,,,left,1,1.381,0,0,0,23,1,perilita,3,left,5020,Férfi,1996,17,2020-09-30_09h37.43.100,lexdecspan,2020.1.2,Win32,60,,,,,,
,,,,,,,,left,1,1.917,0,1,1,16,1,megköny,3,left,5020,Férfi,1996,17,2020-09-30_09h37.43.100,lexdecspan,2020.1.2,Win32,60,,,,,,
,,,,,,,,,,,,,,,,,,,5020,Férfi,1996,17,2020-09-30_09h37.43.100,lexdecspan,2020.1.2,Win32,60,0,2,2,2,1,blocks/block_3.xlsx
,,,,,,,,right,1,0.865,0,0,0,7,1,évfolyam,4,right,5020,Férfi,1996,17,2020-09-30_09h37.43.100,lexdecspan,2020.1.2,Win32,60,,,,,,
,,,,,,,,right,1,0.482,0,1,1,10,1,kész,4,right,5020,Férfi,1996,17,2020-09-30_09h37.43.100,lexdecspan,2020.1.2,Win32,60,,,,,,
,,,,,,,,,,,,,,,,,,,5020,Férfi,1996,17,2020-09-30_09h37.43.100,lexdecspan,2020.1.2,Win32,60,0,3,3,3,1,blocks/block_4.xlsx
,,,,,,,,left,1,0.958,0,0,0,20,1,skadai,5,left,5020,Férfi,1996,17,2020-09-30_09h37.43.100,lexdecspan,2020.1.2,Win32,60,,,,,,
,,,,,,,,right,1,0.728,0,1,1,13,1,mód,5,right,5020,Férfi,1996,17,2020-09-30_09h37.43.100,lexdecspan,2020.1.2,Win32,60,,,,,,
,,,,,,,,,,,,,,,,,,,5020,Férfi,1996,17,2020-09-30_09h37.43.100,lexdecspan,2020.1.2,Win32,60,0,4,4,4,1,blocks/block_5.xlsx
,,,,,,,,right,1,0.735,0,0,0,22,1,célszerű,6,right,5020,Férfi,1996,17,2020-09-30_09h37.43.100,lexdecspan,2020.1.2,Win32,60,,,,,,
,,,,,,,,left,1,1.204,0,1,1,2,1,maliző,6,left,5020,Férfi,1996,17,2020-09-30_09h37.43.100,lexdecspan,2020.1.2,Win32,60,,,,,,
,,,,,,,,,,,,,,,,,,,5020,Férfi,1996,17,2020-09-30_09h37.43.100,lexdecspan,2020.1.2,Win32,60,0,5,5,5,1,blocks/block_6.xlsx
,,,,,,,,left,1,1.496,0,0,0,0,1,borhátsz,7,left,5020,Férfi,1996,17,2020-09-30_09h37.43.100,lexdecspan,2020.1.2,Win32,60,,,,,,
,,,,,,,,left,1,5.186,0,1,1,7,1,nőttetett,7,left,5020,Férfi,1996,17,2020-09-30_09h37.43.100,lexdecspan,2020.1.2,Win32,60,,,,,,
,,,,,,,,,,,,,,,,,,,5020,Férfi,1996,17,2020-09-30_09h37.43.100,lexdecspan,2020.1.2,Win32,60,0,6,6,6,1,blocks/block_7.xlsx
,,,,,,,,right,1,0.582,0,0,0,0,1,krém,8,right,5020,Férfi,1996,17,2020-09-30_09h37.43.100,lexdecspan,2020.1.2,Win32,60,,,,,,
,,,,,,,,right,1,0.54,0,1,1,22,1,pohár,8,right,5020,Férfi,1996,17,2020-09-30_09h37.43.100,lexdecspan,2020.1.2,Win32,60,,,,,,
,,,,,,,,,,,,,,,,,,,5020,Férfi,1996,17,2020-09-30_09h37.43.100,lexdecspan,2020.1.2,Win32,60,0,7,7,7,1,blocks/block_8.xlsx
,,,,,,,,right,0,0.63,0,0,0,10,1,vízgyűlő,9,left,5020,Férfi,1996,17,2020-09-30_09h37.43.100,lexdecspan,2020.1.2,Win32,60,,,,,,
,,,,,,,,right,1,1.083,0,1,1,21,1,gróf,9,right,5020,Férfi,1996,17,2020-09-30_09h37.43.100,lexdecspan,2020.1.2,Win32,60,,,,,,
,,,,,,,,right,1,0.828,0,2,2,17,1,szerez,9,right,5020,Férfi,1996,17,2020-09-30_09h37.43.100,lexdecspan,2020.1.2,Win32,60,,,,,,
,,,,,,,,,,,,,,,,,,,5020,Férfi,1996,17,2020-09-30_09h37.43.100,lexdecspan,2020.1.2,Win32,60,0,8,8,8,1,blocks/block_9.xlsx
,,,,,,,,left,1,1.539,0,0,0,23,1,márossálha,10,left,5020,Férfi,1996,17,2020-09-30_09h37.43.100,lexdecspan,2020.1.2,Win32,60,,,,,,
,,,,,,,,right,1,0.679,0,1,1,21,1,erejű,10,right,5020,Férfi,1996,17,2020-09-30_09h37.43.100,lexdecspan,2020.1.2,Win32,60,,,,,,
,,,,,,,,,,,,,,,,,,,5020,Férfi,1996,17,2020-09-30_09h37.43.100,lexdecspan,2020.1.2,Win32,60,0,9,9,9,1,blocks/block_10.xlsx
,,,,,,,,left,1,2.383,0,0,0,2,1,meggyabb,11,left,5020,Férfi,1996,17,2020-09-30_09h37.43.100,lexdecspan,2020.1.2,Win32,60,,,,,,
,,,,,,,,left,1,2.434,0,1,1,9,1,nagyarnák,11,left,5020,Férfi,1996,17,2020-09-30_09h37.43.100,lexdecspan,2020.1.2,Win32,60,,,,,,
,,,,,,,,,,,,,,,,,,,5020,Férfi,1996,17,2020-09-30_09h37.43.100,lexdecspan,2020.1.2,Win32,60,0,10,10,10,1,blocks/block_11.xlsx
,,,,,,,,right,1,0.725,0,0,0,11,1,naiv,12,right,5020,Férfi,1996,17,2020-09-30_09h37.43.100,lexdecspan,2020.1.2,Win32,60,,,,,,
,,,,,,,,right,1,0.738,0,1,1,2,1,kölcsönöz,12,right,5020,Férfi,1996,17,2020-09-30_09h37.43.100,lexdecspan,2020.1.2,Win32,60,,,,,,
,,,,,,,,,,,,,,,,,,,5020,Férfi,1996,17,2020-09-30_09h37.43.100,lexdecspan,2020.1.2,Win32,60,0,11,11,11,1,blocks/block_12.xlsx
,,,,,,,,right,1,0.732,0,0,0,15,1,utalvány,13,right,5020,Férfi,1996,17,2020-09-30_09h37.43.100,lexdecspan,2020.1.2,Win32,60,,,,,,
,,,,,,,,right,1,2.448,0,1,1,21,1,búcsú,13,right,5020,Férfi,1996,17,2020-09-30_09h37.43.100,lexdecspan,2020.1.2,Win32,60,,,,,,
,,,,,,,,,,,,,,,,,,,5020,Férfi,1996,17,2020-09-30_09h37.43.100,lexdecspan,2020.1.2,Win32,60,0,12,12,12,1,blocks/block_13.xlsx
,,,,,,,,right,1,1.373,0,0,0,18,1,had,14,right,5020,Férfi,1996,17,2020-09-30_09h37.43.100,lexdecspan,2020.1.2,Win32,60,,,,,,
,,,,,,,,right,1,0.736,0,1,1,9,1,állvány,14,right,5020,Férfi,1996,17,2020-09-30_09h37.43.100,lexdecspan,2020.1.2,Win32,60,,,,,,
,,,,,,,,,,,,,,,,,,,5020,Férfi,1996,17,2020-09-30_09h37.43.100,lexdecspan,2020.1.2,Win32,60,0,13,13,13,1,blocks/block_14.xlsx
,,,,,,,,right,1,0.61,0,0,0,17,1,finálé,15,right,5020,Férfi,1996,17,2020-09-30_09h37.43.100,lexdecspan,2020.1.2,Win32,60,,,,,,
,,,,,,,,left,1,0.914,0,1,1,9,1,pálódás,15,left,5020,Férfi,1996,17,2020-09-30_09h37.43.100,lexdecspan,2020.1.2,Win32,60,,,,,,
,,,,,,,,,,,,,,,,,,,5020,Férfi,1996,17,2020-09-30_09h37.43.100,lexdecspan,2020.1.2,Win32,60,0,14,14,14,1,blocks/block_15.xlsx
,,,,,,,,right,1,0.773,0,0,0,2,1,extravagáns,16,right,5020,Férfi,1996,17,2020-09-30_09h37.43.100,lexdecspan,2020.1.2,Win32,60,,,,,,
,,,,,,,,right,1,0.57,0,1,1,22,1,kabin,16,right,5020,Férfi,1996,17,2020-09-30_09h37.43.100,lexdecspan,2020.1.2,Win32,60,,,,,,
,,,,,,,,,,,,,,,,,,,5020,Férfi,1996,17,2020-09-30_09h37.43.100,lexdecspan,2020.1.2,Win32,60,0,15,15,15,1,blocks/block_16.xlsx
,,,,,,,,left,1,0.962,0,0,0,23,1,salógázó,17,left,5020,Férfi,1996,17,2020-09-30_09h37.43.100,lexdecspan,2020.1.2,Win32,60,,,,,,
,,,,,,,,right,1,0.578,0,1,1,16,1,homlok,17,right,5020,Férfi,1996,17,2020-09-30_09h37.43.100,lexdecspan,2020.1.2,Win32,60,,,,,,
,,,,,,,,,,,,,,,,,,,5020,Férfi,1996,17,2020-09-30_09h37.43.100,lexdecspan,2020.1.2,Win32,60,0,16,16,16,1,blocks/block_17.xlsx
,,,,,,,,right,1,0.577,0,0,0,4,1,lépték,18,right,5020,Férfi,1996,17,2020-09-30_09h37.43.100,lexdecspan,2020.1.2,Win32,60,,,,,,
,,,,,,,,right,1,0.731,0,1,1,16,1,főispán,18,right,5020,Férfi,1996,17,2020-09-30_09h37.43.100,lexdecspan,2020.1.2,Win32,60,,,,,,
,,,,,,,,,,,,,,,,,,,5020,Férfi,1996,17,2020-09-30_09h37.43.100,lexdecspan,2020.1.2,Win32,60,0,17,17,17,1,blocks/block_18.xlsx
,,,,,,,,right,1,0.879,0,0,0,18,1,gráf,19,right,5020,Férfi,1996,17,2020-09-30_09h37.43.100,lexdecspan,2020.1.2,Win32,60,,,,,,
,,,,,,,,right,1,0.93,0,1,1,20,1,légijármű,19,right,5020,Férfi,1996,17,2020-09-30_09h37.43.100,lexdecspan,2020.1.2,Win32,60,,,,,,
,,,,,,,,,,,,,,,,,,,5020,Férfi,1996,17,2020-09-30_09h37.43.100,lexdecspan,2020.1.2,Win32,60,0,18,18,18,1,blocks/block_19.xlsx
,,,,,,,,right,1,0.963,0,0,0,14,1,stádium,20,right,5020,Férfi,1996,17,2020-09-30_09h37.43.100,lexdecspan,2020.1.2,Win32,60,,,,,,
,,,,,,,,right,1,0.681,0,1,1,23,1,neoprén,20,right,5020,Férfi,1996,17,2020-09-30_09h37.43.100,lexdecspan,2020.1.2,Win32,60,,,,,,
,,,,,,,,,,,,,,,,,,,5020,Férfi,1996,17,2020-09-30_09h37.43.100,lexdecspan,2020.1.2,Win32,60,0,19,19,19,1,blocks/block_20.xlsx
,,,,,,,,right,1,3.416,0,0,0,18,1,bódé,21,right,5020,Férfi,1996,17,2020-09-30_09h37.43.100,lexdecspan,2020.1.2,Win32,60,,,,,,
,,,,,,,,right,1,0.645,0,1,1,21,1,teríték,21,right,5020,Férfi,1996,17,2020-09-30_09h37.43.100,lexdecspan,2020.1.2,Win32,60,,,,,,
,,,,,,,,,,,,,,,,,,,5020,Férfi,1996,17,2020-09-30_09h37.43.100,lexdecspan,2020.1.2,Win32,60,0,20,20,20,1,blocks/block_21.xlsx
,,,,,,,,right,1,0.717,0,0,0,15,1,nárcisz,22,right,5020,Férfi,1996,17,2020-09-30_09h37.43.100,lexdecspan,2020.1.2,Win32,60,,,,,,
,,,,,,,,right,1,0.946,0,1,1,18,1,forgórész,22,right,5020,Férfi,1996,17,2020-09-30_09h37.43.100,lexdecspan,2020.1.2,Win32,60,,,,,,
,,,,,,,,,,,,,,,,,,,5020,Férfi,1996,17,2020-09-30_09h37.43.100,lexdecspan,2020.1.2,Win32,60,0,21,21,21,1,blocks/block_22.xlsx
,,,,,,,,right,1,0.713,0,0,0,10,1,árus,23,right,5020,Férfi,1996,17,2020-09-30_09h37.43.100,lexdecspan,2020.1.2,Win32,60,,,,,,
,,,,,,,,left,0,0.796,0,1,1,1,1,téesz,23,right,5020,Férfi,1996,17,2020-09-30_09h37.43.100,lexdecspan,2020.1.2,Win32,60,,,,,,
,,,,,,,,left,1,2.302,0,2,2,3,1,sikációzan,23,left,5020,Férfi,1996,17,2020-09-30_09h37.43.100,lexdecspan,2020.1.2,Win32,60,,,,,,
,,,,,,,,,,,,,,,,,,,5020,Férfi,1996,17,2020-09-30_09h37.43.100,lexdecspan,2020.1.2,Win32,60,0,22,22,22,1,blocks/block_23.xlsx
,,,,,,,,right,1,0.778,0,0,0,21,1,össztűz,24,right,5020,Férfi,1996,17,2020-09-30_09h37.43.100,lexdecspan,2020.1.2,Win32,60,,,,,,
,,,,,,,,right,1,0.962,0,1,1,23,1,viszkózus,24,right,5020,Férfi,1996,17,2020-09-30_09h37.43.100,lexdecspan,2020.1.2,Win32,60,,,,,,
,,,,,,,,,,,,,,,,,,,5020,Férfi,1996,17,2020-09-30_09h37.43.100,lexdecspan,2020.1.2,Win32,60,0,23,23,23,1,blocks/block_24.xlsx
,,,,,,,,left,1,3.659,0,0,0,10,1,némezés,25,left,5020,Férfi,1996,17,2020-09-30_09h37.43.100,lexdecspan,2020.1.2,Win32,60,,,,,,
,,,,,,,,right,1,0.748,0,1,1,18,1,tipográfus,25,right,5020,Férfi,1996,17,2020-09-30_09h37.43.100,lexdecspan,2020.1.2,Win32,60,,,,,,
,,,,,,,,,,,,,,,,,,,5020,Férfi,1996,17,2020-09-30_09h37.43.100,lexdecspan,2020.1.2,Win32,60,0,24,24,24,1,blocks/block_25.xlsx
,,,,,,,,left,1,1.156,0,0,0,8,1,zajkottsi,26,left,5020,Férfi,1996,17,2020-09-30_09h37.43.100,lexdecspan,2020.1.2,Win32,60,,,,,,
,,,,,,,,right,1,0.982,0,1,1,17,1,dermeszt,26,right,5020,Férfi,1996,17,2020-09-30_09h37.43.100,lexdecspan,2020.1.2,Win32,60,,,,,,
,,,,,,,,,,,,,,,,,,,5020,Férfi,1996,17,2020-09-30_09h37.43.100,lexdecspan,2020.1.2,Win32,60,0,25,25,25,1,blocks/block_26.xlsx
,,,,,,,,right,1,0.658,0,0,0,2,1,firkál,27,right,5020,Férfi,1996,17,2020-09-30_09h37.43.100,lexdecspan,2020.1.2,Win32,60,,,,,,
,,,,,,,,right,1,1.399,0,1,1,4,1,meztelenkedik,27,right,5020,Férfi,1996,17,2020-09-30_09h37.43.100,lexdecspan,2020.1.2,Win32,60,,,,,,
,,,,,,,,,,,,,,,,,,,5020,Férfi,1996,17,2020-09-30_09h37.43.100,lexdecspan,2020.1.2,Win32,60,0,26,26,26,1,blocks/block_27.xlsx
,,,,,,,,left,1,1.681,0,0,0,0,1,végregura,28,left,5020,Férfi,1996,17,2020-09-30_09h37.43.100,lexdecspan,2020.1.2,Win32,60,,,,,,
,,,,,,,,right,1,0.78,0,1,1,1,1,nehézsúly,28,right,5020,Férfi,1996,17,2020-09-30_09h37.43.100,lexdecspan,2020.1.2,Win32,60,,,,,,
,,,,,,,,,,,,,,,,,,,5020,Férfi,1996,17,2020-09-30_09h37.43.100,lexdecspan,2020.1.2,Win32,60,0,27,27,27,1,blocks/block_28.xlsx
,,,,,,,,right,1,0.802,0,0,0,18,1,megrohad,29,right,5020,Férfi,1996,17,2020-09-30_09h37.43.100,lexdecspan,2020.1.2,Win32,60,,,,,,
,,,,,,,,left,1,1.298,0,1,1,15,1,kvacsvagos,29,left,5020,Férfi,1996,17,2020-09-30_09h37.43.100,lexdecspan,2020.1.2,Win32,60,,,,,,
,,,,,,,,,,,,,,,,,,,5020,Férfi,1996,17,2020-09-30_09h37.43.100,lexdecspan,2020.1.2,Win32,60,0,28,28,28,1,blocks/block_29.xlsx
,,,,,,,,right,1,0.683,0,0,0,0,1,tömődik,30,right,5020,Férfi,1996,17,2020-09-30_09h37.43.100,lexdecspan,2020.1.2,Win32,60,,,,,,
,,,,,,,,right,1,0.799,0,1,1,17,1,sürög,30,right,5020,Férfi,1996,17,2020-09-30_09h37.43.100,lexdecspan,2020.1.2,Win32,60,,,,,,
,,,,,,,,,,,,,,,,,,,5020,Férfi,1996,17,2020-09-30_09h37.43.100,lexdecspan,2020.1.2,Win32,60,0,29,29,29,1,blocks/block_30.xlsx
,,,,,,,,left,1,1.481,0,0,0,0,1,szendültet,31,left,5020,Férfi,1996,17,2020-09-30_09h37.43.100,lexdecspan,2020.1.2,Win32,60,,,,,,
,,,,,,,,right,1,2.893,0,1,1,8,1,konföderatív,31,right,5020,Férfi,1996,17,2020-09-30_09h37.43.100,lexdecspan,2020.1.2,Win32,60,,,,,,
,,,,,,,,,,,,,,,,,,,5020,Férfi,1996,17,2020-09-30_09h37.43.100,lexdecspan,2020.1.2,Win32,60,0,30,30,30,1,blocks/block_31.xlsx
,,,,,,,,right,1,3.099,0,0,0,8,1,interpretátor,32,right,5020,Férfi,1996,17,2020-09-30_09h37.43.100,lexdecspan,2020.1.2,Win32,60,,,,,,
,,,,,,,,right,1,4.836,0,1,1,3,1,csőszház,32,right,5020,Férfi,1996,17,2020-09-30_09h37.43.100,lexdecspan,2020.1.2,Win32,60,,,,,,
,,,,,,,,,,,,,,,,,,,5020,Férfi,1996,17,2020-09-30_09h37.43.100,lexdecspan,2020.1.2,Win32,60,0,31,31,31,1,blocks/block_32.xlsx
,,,,,,,,left,1,1.987,0,0,0,22,1,majánosol,33,left,5020,Férfi,1996,17,2020-09-30_09h37.43.100,lexdecspan,2020.1.2,Win32,60,,,,,,
,,,,,,,,left,1,2.129,0,1,1,20,1,antgathat,33,left,5020,Férfi,1996,17,2020-09-30_09h37.43.100,lexdecspan,2020.1.2,Win32,60,,,,,,
,,,,,,,,,,,,,,,,,,,5020,Férfi,1996,17,2020-09-30_09h37.43.100,lexdecspan,2020.1.2,Win32,60,0,32,32,32,1,blocks/block_33.xlsx
,,,,,,,,left,1,0.982,0,0,0,10,1,zúzanó,34,left,5020,Férfi,1996,17,2020-09-30_09h37.43.100,lexdecspan,2020.1.2,Win32,60,,,,,,
,,,,,,,,right,1,0.682,0,1,1,17,1,dögönyöz,34,right,5020,Férfi,1996,17,2020-09-30_09h37.43.100,lexdecspan,2020.1.2,Win32,60,,,,,,
,,,,,,,,,,,,,,,,,,,5020,Férfi,1996,17,2020-09-30_09h37.43.100,lexdecspan,2020.1.2,Win32,60,0,33,33,33,1,blocks/block_34.xlsx
,,,,,,,,left,1,1.68,0,0,0,9,1,illikázó,35,left,5020,Férfi,1996,17,2020-09-30_09h37.43.100,lexdecspan,2020.1.2,Win32,60,,,,,,
,,,,,,,,left,0,1.013,0,1,1,8,1,szolúbilis,35,right,5020,Férfi,1996,17,2020-09-30_09h37.43.100,lexdecspan,2020.1.2,Win32,60,,,,,,
,,,,,,,,left,0,1.244,0,2,2,7,1,hullong,35,right,5020,Férfi,1996,17,2020-09-30_09h37.43.100,lexdecspan,2020.1.2,Win32,60,,,,,,
,,,,,,,,left,0,2.897,0,3,3,11,1,lumpenproletariátus,35,right,5020,Férfi,1996,17,2020-09-30_09h37.43.100,lexdecspan,2020.1.2,Win32,60,,,,,,
,,,,,,,,,,,,,,,,,,,5020,Férfi,1996,17,2020-09-30_09h37.43.100,lexdecspan,2020.1.2,Win32,60,0,34,34,34,1,blocks/block_35.xlsx
,,,,,,,,left,1,3.306,0,0,0,20,1,anyargany,36,left,5020,Férfi,1996,17,2020-09-30_09h37.43.100,lexdecspan,2020.1.2,Win32,60,,,,,,
,,,,,,,,right,1,1.53,0,1,1,5,1,gyakornokoskodik,36,right,5020,Férfi,1996,17,2020-09-30_09h37.43.100,lexdecspan,2020.1.2,Win32,60,,,,,,
,,,,,,,,,,,,,,,,,,,5020,Férfi,1996,17,2020-09-30_09h37.43.100,lexdecspan,2020.1.2,Win32,60,0,35,35,35,1,blocks/block_36.xlsx
,,,,,,,,right,1,0.749,0,0,0,6,1,köpdös,37,right,5020,Férfi,1996,17,2020-09-30_09h37.43.100,lexdecspan,2020.1.2,Win32,60,,,,,,
,,,,,,,,left,0,1.1,0,1,1,22,1,bouillon,37,right,5020,Férfi,1996,17,2020-09-30_09h37.43.100,lexdecspan,2020.1.2,Win32,60,,,,,,
,,,,,,,,right,1,0.832,0,2,2,20,1,dobbant,37,right,5020,Férfi,1996,17,2020-09-30_09h37.43.100,lexdecspan,2020.1.2,Win32,60,,,,,,
,,,,,,,,,,,,,,,,,,,5020,Férfi,1996,17,2020-09-30_09h37.43.100,lexdecspan,2020.1.2,Win32,60,0,36,36,36,1,blocks/block_37.xlsx
,,,,,,,,right,1,0.611,0,0,0,3,1,illetődik,38,right,5020,Férfi,1996,17,2020-09-30_09h37.43.100,lexdecspan,2020.1.2,Win32,60,,,,,,
,,,,,,,,right,1,0.93,0,1,1,22,1,ravataloz,38,right,5020,Férfi,1996,17,2020-09-30_09h37.43.100,lexdecspan,2020.1.2,Win32,60,,,,,,
,,,,,,,,,,,,,,,,,,,5020,Férfi,1996,17,2020-09-30_09h37.43.100,lexdecspan,2020.1.2,Win32,60,0,37,37,37,1,blocks/block_38.xlsx
,,,,,,,,right,1,0.582,0,0,0,17,1,rengeteg,39,right,5020,Férfi,1996,17,2020-09-30_09h37.43.100,lexdecspan,2020.1.2,Win32,60,,,,,,
,,,,,,,,left,0,1.103,0,1,1,16,1,amodális,39,right,5020,Férfi,1996,17,2020-09-30_09h37.43.100,lexdecspan,2020.1.2,Win32,60,,,,,,
,,,,,,,,left,0,0.897,0,2,2,8,1,vabank,39,right,5020,Férfi,1996,17,2020-09-30_09h37.43.100,lexdecspan,2020.1.2,Win32,60,,,,,,
,,,,,,,,right,1,2.097,0,3,3,11,1,infimum,39,right,5020,Férfi,1996,17,2020-09-30_09h37.43.100,lexdecspan,2020.1.2,Win32,60,,,,,,
,,,,,,,,,,,,,,,,,,,5020,Férfi,1996,17,2020-09-30_09h37.43.100,lexdecspan,2020.1.2,Win32,60,0,38,38,38,1,blocks/block_39.xlsx
,,,,,,,,left,1,1.055,0,0,0,7,1,inta,40,left,5020,Férfi,1996,17,2020-09-30_09h37.43.100,lexdecspan,2020.1.2,Win32,60,,,,,,
,,,,,,,,left,1,1.861,0,1,1,19,1,többhagyos,40,left,5020,Férfi,1996,17,2020-09-30_09h37.43.100,lexdecspan,2020.1.2,Win32,60,,,,,,
,,,,,,,,,,,,,,,,,,,5020,Férfi,1996,17,2020-09-30_09h37.43.100,lexdecspan,2020.1.2,Win32,60,0,39,39,39,1,blocks/block_40.xlsx
,,,,,,,,left,1,1.496,0,0,0,17,1,orvatható,41,left,5020,Férfi,1996,17,2020-09-30_09h37.43.100,lexdecspan,2020.1.2,Win32,60,,,,,,
,,,,,,,,left,0,0.985,0,1,1,10,1,diviz,41,right,5020,Férfi,1996,17,2020-09-30_09h37.43.100,lexdecspan,2020.1.2,Win32,60,,,,,,
,,,,,,,,left,1,1.181,0,2,2,4,1,prografej,41,left,5020,Férfi,1996,17,2020-09-30_09h37.43.100,lexdecspan,2020.1.2,Win32,60,,,,,,
,,,,,,,,,,,,,,,,,,,5020,Férfi,1996,17,2020-09-30_09h37.43.100,lexdecspan,2020.1.2,Win32,60,0,40,40,40,1,blocks/block_41.xlsx
,,,,,,,,right,1,0.718,0,0,0,14,1,lukaszt,42,right,5020,Férfi,1996,17,2020-09-30_09h37.43.100,lexdecspan,2020.1.2,Win32,60,,,,,,
,,,,,,,,left,0,0.964,0,1,1,23,1,truccol,42,right,5020,Férfi,1996,17,2020-09-30_09h37.43.100,lexdecspan,2020.1.2,Win32,60,,,,,,
,,,,,,,,left,1,0.886,0,2,2,2,1,ellagcse,42,left,5020,Férfi,1996,17,2020-09-30_09h37.43.100,lexdecspan,2020.1.2,Win32,60,,,,,,
,,,,,,,,,,,,,,,,,,,5020,Férfi,1996,17,2020-09-30_09h37.43.100,lexdecspan,2020.1.2,Win32,60,0,41,41,41,1,blocks/block_42.xlsx
,,,,,,,,right,1,1.33,0,0,0,6,1,buktázik,43,right,5020,Férfi,1996,17,2020-09-30_09h37.43.100,lexdecspan,2020.1.2,Win32,60,,,,,,
,,,,,,,,left,1,1.182,0,1,1,15,1,borodó,43,left,5020,Férfi,1996,17,2020-09-30_09h37.43.100,lexdecspan,2020.1.2,Win32,60,,,,,,
,,,,,,,,,,,,,,,,,,,5020,Férfi,1996,17,2020-09-30_09h37.43.100,lexdecspan,2020.1.2,Win32,60,0,42,42,42,1,blocks/block_43.xlsx
,,,,,,,,right,1,0.762,0,0,0,21,1,eretnek,44,right,5020,Férfi,1996,17,2020-09-30_09h37.43.100,lexdecspan,2020.1.2,Win32,60,,,,,,
,,,,,,,,left,1,0.766,0,1,1,20,1,víker,44,left,5020,Férfi,1996,17,2020-09-30_09h37.43.100,lexdecspan,2020.1.2,Win32,60,,,,,,
,,,,,,,,,,,,,,,,,,,5020,Férfi,1996,17,2020-09-30_09h37.43.100,lexdecspan,2020.1.2,Win32,60,0,43,43,43,1,blocks/block_44.xlsx
,,,,,,,,left,0,0.865,0,0,0,10,1,istác,45,right,5020,Férfi,1996,17,2020-09-30_09h37.43.100,lexdecspan,2020.1.2,Win32,60,,,,,,
,,,,,,,,right,1,0.745,0,1,1,22,1,bajuszfű,45,right,5020,Férfi,1996,17,2020-09-30_09h37.43.100,lexdecspan,2020.1.2,Win32,60,,,,,,
,,,,,,,,right,1,0.97,0,2,2,20,1,lexikológus,45,right,5020,Férfi,1996,17,2020-09-30_09h37.43.100,lexdecspan,2020.1.2,Win32,60,,,,,,
,,,,,,,,,,,,,,,,,,,5020,Férfi,1996,17,2020-09-30_09h37.43.100,lexdecspan,2020.1.2,Win32,60,0,44,44,44,1,blocks/block_45.xlsx
,,,,,,,,right,1,0.714,0,0,0,12,1,léghajózik,46,right,5020,Férfi,1996,17,2020-09-30_09h37.43.100,lexdecspan,2020.1.2,Win32,60,,,,,,
,,,,,,,,right,1,1.414,0,1,1,16,1,bárányfark,46,right,5020,Férfi,1996,17,2020-09-30_09h37.43.100,lexdecspan,2020.1.2,Win32,60,,,,,,
,,,,,,,,,,,,,,,,,,,5020,Férfi,1996,17,2020-09-30_09h37.43.100,lexdecspan,2020.1.2,Win32,60,0,45,45,45,1,blocks/block_46.xlsx
,,,,,,,,left,1,2.077,0,0,0,10,1,kosi,47,left,5020,Férfi,1996,17,2020-09-30_09h37.43.100,lexdecspan,2020.1.2,Win32,60,,,,,,
,,,,,,,,left,0,1.033,0,1,1,12,1,rámáz,47,right,5020,Férfi,1996,17,2020-09-30_09h37.43.100,lexdecspan,2020.1.2,Win32,60,,,,,,
,,,,,,,,right,1,0.882,0,2,2,11,1,kandíroz,47,right,5020,Férfi,1996,17,2020-09-30_09h37.43.100,lexdecspan,2020.1.2,Win32,60,,,,,,
,,,,,,,,,,,,,,,,,,,5020,Férfi,1996,17,2020-09-30_09h37.43.100,lexdecspan,2020.1.2,Win32,60,0,46,46,46,1,blocks/block_47.xlsx
,,,,,,,,left,1,0.834,0,0,0,1,1,szöngő,48,left,5020,Férfi,1996,17,2020-09-30_09h37.43.100,lexdecspan,2020.1.2,Win32,60,,,,,,
,,,,,,,,left,0,1.497,0,1,1,13,1,pilinckézik,48,right,5020,Férfi,1996,17,2020-09-30_09h37.43.100,lexdecspan,2020.1.2,Win32,60,,,,,,
,,,,,,,,left,0,1.012,0,2,2,5,1,diffamál,48,right,5020,Férfi,1996,17,2020-09-30_09h37.43.100,lexdecspan,2020.1.2,Win32,60,,,,,,
,,,,,,,,right,1,8.335,0,3,3,3,1,antikommutatív,48,right,5020,Férfi,1996,17,2020-09-30_09h37.43.100,lexdecspan,2020.1.2,Win32,60,,,,,,
,,,,,,,,,,,,,,,,,,,5020,Férfi,1996,17,2020-09-30_09h37.43.100,lexdecspan,2020.1.2,Win32,60,0,47,47,47,1,blocks/block_48.xlsx
,,,,,,,,right,1,1.031,0,0,0,21,1,ruharongy,49,right,5020,Férfi,1996,17,2020-09-30_09h37.43.100,lexdecspan,2020.1.2,Win32,60,,,,,,
,,,,,,,,right,1,3.45,0,1,1,4,1,kencéz,49,right,5020,Férfi,1996,17,2020-09-30_09h37.43.100,lexdecspan,2020.1.2,Win32,60,,,,,,
,,,,,,,,,,,,,,,,,,,5020,Férfi,1996,17,2020-09-30_09h37.43.100,lexdecspan,2020.1.2,Win32,60,0,48,48,48,1,blocks/block_49.xlsx
,,,,,,,,right,1,1.667,0,0,0,16,1,tőzsérkedik,50,right,5020,Férfi,1996,17,2020-09-30_09h37.43.100,lexdecspan,2020.1.2,Win32,60,,,,,,
,,,,,,,,left,1,0.915,0,1,1,6,1,cséltás,50,left,5020,Férfi,1996,17,2020-09-30_09h37.43.100,lexdecspan,2020.1.2,Win32,60,,,,,,
