block_names,word,difficulty,correct_answer,across_block.thisRepN,across_block.thisTrialN,across_block.thisN,across_block.thisIndex,within_block.thisRepN,within_block.thisTrialN,within_block.thisN,within_block.thisIndex,jonapot_szoveg.started,jonapot_szoveg.stopped,szo_kiir.started,szo_kiir.stopped,resp.keys,resp.corr,resp.rt,resp.started,resp.stopped,koszi_szoveg.started,koszi_szoveg.stopped,session,participant,date,expName,psychopyVersion,frameRate,
blocks/block_1.csv,megy,1,left,0,0,0,0,0,0,0,1,10.813951805990655,None,12.682822496979497,None,left,1,2.0533828599727713,12.682822496979497,None,,,01,pepe bácsi,2020_May_19_1828,lukacsagi_lexdec,3.2.4,59.991468722170595,
blocks/block_1.csv,nincs,1,left,0,0,0,0,0,1,1,19,,,15.25201192800887,None,left,1,0.9082263330346905,15.25201192800887,None,,,01,pepe bácsi,2020_May_19_1828,lukacsagi_lexdec,3.2.4,59.991468722170595,
blocks/block_1.csv,,,,0,0,0,0,,,,,,,,,,,,,,,,01,pepe bácsi,2020_May_19_1828,lukacsagi_lexdec,3.2.4,59.991468722170595,
blocks/block_2.csv,biztosít,2,left,0,1,1,1,0,0,0,4,,,16.70288078399608,None,left,1,1.393385770963505,16.70288078399608,None,,,01,pepe bácsi,2020_May_19_1828,lukacsagi_lexdec,3.2.4,59.991468722170595,
blocks/block_2.csv,cím,2,left,0,1,1,1,0,1,1,1,,,18.604984642995987,None,left,1,0.8112764270044863,18.604984642995987,None,,,01,pepe bácsi,2020_May_19_1828,lukacsagi_lexdec,3.2.4,59.991468722170595,
blocks/block_2.csv,,,,0,1,1,1,,,,,,,,,,,,,,,,01,pepe bácsi,2020_May_19_1828,lukacsagi_lexdec,3.2.4,59.991468722170595,
blocks/block_3.csv,tetszik,3,left,0,2,2,2,0,0,0,19,,,20.005522016028408,None,left,1,0.9067380190244876,20.005522016028408,None,,,01,pepe bácsi,2020_May_19_1828,lukacsagi_lexdec,3.2.4,59.991468722170595,
blocks/block_3.csv,gond,3,left,0,2,2,2,0,1,1,4,,,21.422886300017126,None,left,1,0.7853733380325139,21.422886300017126,None,,,01,pepe bácsi,2020_May_19_1828,lukacsagi_lexdec,3.2.4,59.991468722170595,
blocks/block_3.csv,,,,0,2,2,2,,,,,,,,,,,,,,,,01,pepe bácsi,2020_May_19_1828,lukacsagi_lexdec,3.2.4,59.991468722170595,
blocks/block_4.csv,föld,4,left,0,3,3,3,0,0,0,13,,,22.773057820973918,None,left,1,0.6031148320180364,22.773057820973918,None,,,01,pepe bácsi,2020_May_19_1828,lukacsagi_lexdec,3.2.4,59.991468722170595,
blocks/block_4.csv,keresztény,4,left,0,3,3,3,0,1,1,7,,,23.89189005101798,None,left,1,0.6923715739976615,23.89189005101798,None,,,01,pepe bácsi,2020_May_19_1828,lukacsagi_lexdec,3.2.4,59.991468722170595,
blocks/block_4.csv,,,,0,3,3,3,,,,,,,,,,,,,,,,01,pepe bácsi,2020_May_19_1828,lukacsagi_lexdec,3.2.4,59.991468722170595,
blocks/block_5.csv,román,5,left,0,4,4,4,0,0,0,12,,,25.14235291897785,None,left,1,0.6739157600095496,25.14235291897785,None,,,01,pepe bácsi,2020_May_19_1828,lukacsagi_lexdec,3.2.4,59.991468722170595,
blocks/block_5.csv,spanyol,5,left,0,4,4,4,0,1,1,21,,,26.3260711110197,None,left,1,0.6421183579950593,26.3260711110197,None,,,01,pepe bácsi,2020_May_19_1828,lukacsagi_lexdec,3.2.4,59.991468722170595,
blocks/block_5.csv,,,,0,4,4,4,,,,,,,,,,,,,,,,01,pepe bácsi,2020_May_19_1828,lukacsagi_lexdec,3.2.4,59.991468722170595,
blocks/block_6.csv,üreméler,6,right,0,5,5,5,0,0,0,9,,,27.52642917097546,None,right,1,1.7138423820142634,27.52642917097546,None,,,01,pepe bácsi,2020_May_19_1828,lukacsagi_lexdec,3.2.4,59.991468722170595,
blocks/block_6.csv,könyvtár,6,left,0,5,5,5,0,1,1,10,,,29.745585313008633,None,left,1,0.6706959780422039,29.745585313008633,None,,,01,pepe bácsi,2020_May_19_1828,lukacsagi_lexdec,3.2.4,59.991468722170595,
blocks/block_6.csv,,,,0,5,5,5,,,,,,,,,,,,,,,,01,pepe bácsi,2020_May_19_1828,lukacsagi_lexdec,3.2.4,59.991468722170595,
blocks/block_7.csv,összám,7,right,0,6,6,6,0,0,0,9,,,30.99605924100615,None,right,1,1.412191656010691,30.99605924100615,None,,,01,pepe bácsi,2020_May_19_1828,lukacsagi_lexdec,3.2.4,59.991468722170595,
blocks/block_7.csv,kraphat,7,right,0,6,6,6,0,1,1,17,,,32.91361973900348,None,right,1,0.8626469620503485,32.91361973900348,None,,,01,pepe bácsi,2020_May_19_1828,lukacsagi_lexdec,3.2.4,59.991468722170595,
blocks/block_7.csv,,,,0,6,6,6,,,,,,,,,,,,,,,,01,pepe bácsi,2020_May_19_1828,lukacsagi_lexdec,3.2.4,59.991468722170595,
blocks/block_8.csv,tutamizál,8,right,0,7,7,7,0,0,0,3,,,34.349314203020185,None,right,1,0.9149027740349993,34.349314203020185,None,,,01,pepe bácsi,2020_May_19_1828,lukacsagi_lexdec,3.2.4,59.991468722170595,
blocks/block_8.csv,másodperc,8,left,0,7,7,7,0,1,1,21,,,35.76604779699119,None,left,1,0.7222098969505168,35.76604779699119,None,,,01,pepe bácsi,2020_May_19_1828,lukacsagi_lexdec,3.2.4,59.991468722170595,
blocks/block_8.csv,,,,0,7,7,7,,,,,,,,,,,,,,,,01,pepe bácsi,2020_May_19_1828,lukacsagi_lexdec,3.2.4,59.991468722170595,
blocks/block_9.csv,barát,9,left,0,8,8,8,0,0,0,21,,,37.06646824500058,None,left,1,0.7098068930208683,37.06646824500058,None,,,01,pepe bácsi,2020_May_19_1828,lukacsagi_lexdec,3.2.4,59.991468722170595,
blocks/block_9.csv,átütésetti,9,right,0,8,8,8,0,1,1,13,,,38.28368583600968,None,right,1,1.3165655479533598,38.28368583600968,None,,,01,pepe bácsi,2020_May_19_1828,lukacsagi_lexdec,3.2.4,59.991468722170595,
blocks/block_9.csv,,,,0,8,8,8,,,,,,,,,,,,,,,,01,pepe bácsi,2020_May_19_1828,lukacsagi_lexdec,3.2.4,59.991468722170595,
blocks/block_10.csv,dumcsoska,10,right,0,9,9,9,0,0,0,3,,,40.18601868598489,None,right,1,0.9022419690154493,40.18601868598489,None,,,01,pepe bácsi,2020_May_19_1828,lukacsagi_lexdec,3.2.4,59.991468722170595,
blocks/block_10.csv,citrom,10,left,0,9,9,9,0,1,1,15,,,41.60306108201621,None,left,1,0.653224847977981,41.60306108201621,None,,,01,pepe bácsi,2020_May_19_1828,lukacsagi_lexdec,3.2.4,59.991468722170595,
blocks/block_10.csv,,,,0,9,9,9,,,,,,,,,,,,,,,,01,pepe bácsi,2020_May_19_1828,lukacsagi_lexdec,3.2.4,59.991468722170595,
blocks/block_11.csv,fényképezőgép,11,left,0,10,10,10,0,0,0,15,,,42.886843781976495,None,left,1,0.6734187570400536,42.886843781976495,None,,,01,pepe bácsi,2020_May_19_1828,lukacsagi_lexdec,3.2.4,59.991468722170595,
blocks/block_11.csv,játszótér,11,left,0,10,10,10,0,1,1,7,,,44.07220100599807,None,left,1,0.4480427809758112,44.07220100599807,None,,,01,pepe bácsi,2020_May_19_1828,lukacsagi_lexdec,3.2.4,59.991468722170595,
blocks/block_11.csv,,,,0,10,10,10,,,,,,,,,,,,,,,,01,pepe bácsi,2020_May_19_1828,lukacsagi_lexdec,3.2.4,59.991468722170595,
blocks/block_12.csv,kölcsönöz,12,left,0,11,11,11,0,0,0,13,,,45.10601957200561,None,left,1,0.46224321803310886,45.10601957200561,None,,,01,pepe bácsi,2020_May_19_1828,lukacsagi_lexdec,3.2.4,59.991468722170595,
blocks/block_12.csv,ékszer,12,left,0,11,11,11,0,1,1,23,,,46.07293599797413,None,left,1,0.495320302026812,46.07293599797413,None,,,01,pepe bácsi,2020_May_19_1828,lukacsagi_lexdec,3.2.4,59.991468722170595,
blocks/block_12.csv,,,,0,11,11,11,,,,,,,,,,,,,,,,01,pepe bácsi,2020_May_19_1828,lukacsagi_lexdec,3.2.4,59.991468722170595,
blocks/block_13.csv,egyenrangú,13,left,0,12,12,12,0,0,0,19,,,47.17337456002133,None,left,1,0.8428880179999396,47.17337456002133,None,,,01,pepe bácsi,2020_May_19_1828,lukacsagi_lexdec,3.2.4,59.991468722170595,
blocks/block_13.csv,utalvány,13,left,0,12,12,12,0,1,1,13,,,48.525462030025665,None,left,1,0.6747956170001999,48.525462030025665,None,,,01,pepe bácsi,2020_May_19_1828,lukacsagi_lexdec,3.2.4,59.991468722170595,
blocks/block_13.csv,,,,0,12,12,12,,,,,,,,,,,,,,,,01,pepe bácsi,2020_May_19_1828,lukacsagi_lexdec,3.2.4,59.991468722170595,
blocks/block_14.csv,zuhany,14,left,0,13,13,13,0,0,0,14,,,49.8093152489746,None,left,1,0.48696781403850764,49.8093152489746,None,,,01,pepe bácsi,2020_May_19_1828,lukacsagi_lexdec,3.2.4,59.991468722170595,
blocks/block_14.csv,kulináris,14,left,0,13,13,13,0,1,1,11,,,50.80959562002681,None,left,1,0.5346138619934209,50.80959562002681,None,,,01,pepe bácsi,2020_May_19_1828,lukacsagi_lexdec,3.2.4,59.991468722170595,
blocks/block_14.csv,,,,0,13,13,13,,,,,,,,,,,,,,,,01,pepe bácsi,2020_May_19_1828,lukacsagi_lexdec,3.2.4,59.991468722170595,
blocks/block_15.csv,hajlik,15,left,0,14,14,14,0,0,0,21,,,51.960522789973766,None,left,1,0.5277341629844159,51.960522789973766,None,,,01,pepe bácsi,2020_May_19_1828,lukacsagi_lexdec,3.2.4,59.991468722170595,
blocks/block_15.csv,zártkörű,15,left,0,14,14,14,0,1,1,11,,,52.993853016989306,None,left,1,0.630418048996944,52.993853016989306,None,,,01,pepe bácsi,2020_May_19_1828,lukacsagi_lexdec,3.2.4,59.991468722170595,
blocks/block_15.csv,,,,0,14,14,14,,,,,,,,,,,,,,,,01,pepe bácsi,2020_May_19_1828,lukacsagi_lexdec,3.2.4,59.991468722170595,
blocks/block_16.csv,remekmű,16,left,0,15,15,15,0,0,0,6,,,54.24563679099083,None,left,1,0.5386319300159812,54.24563679099083,None,,,01,pepe bácsi,2020_May_19_1828,lukacsagi_lexdec,3.2.4,59.991468722170595,
blocks/block_16.csv,kiskanál,16,left,0,15,15,15,0,1,1,3,,,55.29632613499416,None,left,1,0.4798872850369662,55.29632613499416,None,,,01,pepe bácsi,2020_May_19_1828,lukacsagi_lexdec,3.2.4,59.991468722170595,
blocks/block_16.csv,,,,0,15,15,15,,,,,,,,,,,,,,,,01,pepe bácsi,2020_May_19_1828,lukacsagi_lexdec,3.2.4,59.991468722170595,
blocks/block_17.csv,ezüstös,17,left,0,16,16,16,0,0,0,4,,,56.39726542198332,None,left,1,0.4350040050339885,56.39726542198332,None,,,01,pepe bácsi,2020_May_19_1828,lukacsagi_lexdec,3.2.4,59.991468722170595,
blocks/block_17.csv,klór,17,left,0,16,16,16,0,1,1,16,,,57.346884463971946,None,left,1,0.5733997329953127,57.346884463971946,None,,,01,pepe bácsi,2020_May_19_1828,lukacsagi_lexdec,3.2.4,59.991468722170595,
blocks/block_17.csv,,,,0,16,16,16,,,,,,,,,,,,,,,,01,pepe bácsi,2020_May_19_1828,lukacsagi_lexdec,3.2.4,59.991468722170595,
blocks/block_18.csv,biblikus,18,left,0,17,17,17,0,0,0,16,,,58.5824559580069,None,left,1,0.6498291190364398,58.5824559580069,None,,,01,pepe bácsi,2020_May_19_1828,lukacsagi_lexdec,3.2.4,59.991468722170595,
blocks/block_18.csv,megállóhely,18,left,0,17,17,17,0,1,1,22,,,59.732763465028256,None,left,1,0.5154447120148689,59.732763465028256,None,,,01,pepe bácsi,2020_May_19_1828,lukacsagi_lexdec,3.2.4,59.991468722170595,
blocks/block_18.csv,,,,0,17,17,17,,,,,,,,,,,,,,,,01,pepe bácsi,2020_May_19_1828,lukacsagi_lexdec,3.2.4,59.991468722170595,
blocks/block_19.csv,gyenkedéri,19,right,0,18,18,18,0,0,0,14,,,60.88314100197749,None,right,1,0.6611447769682854,60.88314100197749,None,,,01,pepe bácsi,2020_May_19_1828,lukacsagi_lexdec,3.2.4,59.991468722170595,
blocks/block_19.csv,hullámzik,19,left,0,18,18,18,0,1,1,3,,,62.050279119983315,None,left,1,0.7259966100100428,62.050279119983315,None,,,01,pepe bácsi,2020_May_19_1828,lukacsagi_lexdec,3.2.4,59.991468722170595,
blocks/block_19.csv,,,,0,18,18,18,,,,,,,,,,,,,,,,01,pepe bácsi,2020_May_19_1828,lukacsagi_lexdec,3.2.4,59.991468722170595,
blocks/block_20.csv,örög,20,right,0,19,19,19,0,0,0,0,,,63.41913322801702,None,right,1,0.7491536739980802,63.41913322801702,None,,,01,pepe bácsi,2020_May_19_1828,lukacsagi_lexdec,3.2.4,59.991468722170595,
blocks/block_20.csv,holografikus,20,left,0,19,19,19,0,1,1,3,,,64.66955903900089,None,left,1,0.6907208699849434,64.66955903900089,None,,,01,pepe bácsi,2020_May_19_1828,lukacsagi_lexdec,3.2.4,59.991468722170595,
blocks/block_20.csv,,,,0,19,19,19,,,,,,,,,,,,,,,,01,pepe bácsi,2020_May_19_1828,lukacsagi_lexdec,3.2.4,59.991468722170595,
blocks/block_21.csv,khiba,21,right,0,20,20,20,0,0,0,3,,,66.00350916199386,None,right,1,0.7887505409889854,66.00350916199386,None,,,01,pepe bácsi,2020_May_19_1828,lukacsagi_lexdec,3.2.4,59.991468722170595,
blocks/block_21.csv,mérőműszer,21,left,0,20,20,20,0,1,1,7,,,67.30382363800891,None,left,1,0.6324600380030461,67.30382363800891,None,,,01,pepe bácsi,2020_May_19_1828,lukacsagi_lexdec,3.2.4,59.991468722170595,
blocks/block_21.csv,,,,0,20,20,20,,,,,,,,,,,,,,,,01,pepe bácsi,2020_May_19_1828,lukacsagi_lexdec,3.2.4,59.991468722170595,
blocks/block_22.csv,nagybeteg,22,left,0,21,21,21,0,0,0,22,,,68.572479518014,None,left,1,0.7957424750202335,68.572479518014,None,,,01,pepe bácsi,2020_May_19_1828,lukacsagi_lexdec,3.2.4,59.991468722170595,
blocks/block_22.csv,lendít,22,left,0,21,21,21,0,1,1,9,,,69.87308238999685,None,left,1,1.5670949569903314,69.87308238999685,None,,,01,pepe bácsi,2020_May_19_1828,lukacsagi_lexdec,3.2.4,59.991468722170595,
blocks/block_22.csv,,,,0,21,21,21,,,,,,,,,,,,,,,,01,pepe bácsi,2020_May_19_1828,lukacsagi_lexdec,3.2.4,59.991468722170595,
blocks/block_23.csv,konfirki,23,right,0,22,22,22,0,0,0,11,,,72.14032663300168,None,right,1,0.8759487550123595,72.14032663300168,None,,,01,pepe bácsi,2020_May_19_1828,lukacsagi_lexdec,3.2.4,59.991468722170595,
blocks/block_23.csv,tejfehér,23,left,0,22,22,22,0,1,1,4,,,73.52586727001471,None,left,1,0.7063920260407031,73.52586727001471,None,,,01,pepe bácsi,2020_May_19_1828,lukacsagi_lexdec,3.2.4,59.991468722170595,
blocks/block_23.csv,,,,0,22,22,22,,,,,,,,,,,,,,,,01,pepe bácsi,2020_May_19_1828,lukacsagi_lexdec,3.2.4,59.991468722170595,
blocks/block_24.csv,kulcscsont,24,left,0,23,23,23,0,0,0,2,,,74.89306540298276,None,left,1,1.1872221420053393,74.89306540298276,None,,,01,pepe bácsi,2020_May_19_1828,lukacsagi_lexdec,3.2.4,59.991468722170595,
blocks/block_24.csv,hidroxid,24,left,0,23,23,23,0,1,1,19,,,76.5936555719818,None,left,1,0.7826294130063616,76.5936555719818,None,,,01,pepe bácsi,2020_May_19_1828,lukacsagi_lexdec,3.2.4,59.991468722170595,
blocks/block_24.csv,,,,0,23,23,23,,,,,,,,,,,,,,,,01,pepe bácsi,2020_May_19_1828,lukacsagi_lexdec,3.2.4,59.991468722170595,
blocks/block_25.csv,lágyék,25,left,0,24,24,24,0,0,0,2,,,78.02745461801533,None,left,1,0.7647692479658872,78.02745461801533,None,,,01,pepe bácsi,2020_May_19_1828,lukacsagi_lexdec,3.2.4,59.991468722170595,
blocks/block_25.csv,tokmány,25,left,0,24,24,24,0,1,1,0,,,79.29618139198283,None,right,0,1.136078390001785,79.29618139198283,None,,,01,pepe bácsi,2020_May_19_1828,lukacsagi_lexdec,3.2.4,59.991468722170595,
blocks/block_25.csv,oldalszél,25,left,0,24,24,24,0,2,2,23,,,80.94693001901032,None,left,1,1.1012563519761898,80.94693001901032,None,,,01,pepe bácsi,2020_May_19_1828,lukacsagi_lexdec,3.2.4,59.991468722170595,
blocks/block_25.csv,,,,0,24,24,24,,,,,,,,,,,,,,,,01,pepe bácsi,2020_May_19_1828,lukacsagi_lexdec,3.2.4,59.991468722170595,
blocks/block_26.csv,véresszájú,26,left,0,25,25,25,0,0,0,12,,,82.71409541799221,None,left,1,0.8941617700038478,82.71409541799221,None,,,01,pepe bácsi,2020_May_19_1828,lukacsagi_lexdec,3.2.4,59.991468722170595,
blocks/block_26.csv,végregura,26,right,0,25,25,25,0,1,1,6,,,84.11623685900122,None,left,0,18.7160181030049,84.11623685900122,None,,,01,pepe bácsi,2020_May_19_1828,lukacsagi_lexdec,3.2.4,59.991468722170595,
blocks/block_26.csv,átlandálás,26,right,0,25,25,25,0,2,2,17,,,103.34465974097839,None,right,1,1.0236032209941186,103.34465974097839,None,,,01,pepe bácsi,2020_May_19_1828,lukacsagi_lexdec,3.2.4,59.991468722170595,
blocks/block_26.csv,,,,0,25,25,25,,,,,,,,,,,,,,,,01,pepe bácsi,2020_May_19_1828,lukacsagi_lexdec,3.2.4,59.991468722170595,
blocks/block_27.csv,sporthorgász,27,left,0,26,26,26,0,0,0,14,,,105.04704530199524,None,left,1,0.6171623929985799,105.04704530199524,None,,,01,pepe bácsi,2020_May_19_1828,lukacsagi_lexdec,3.2.4,59.991468722170595,
blocks/block_27.csv,rubinvörös,27,left,0,26,26,26,0,1,1,3,,,106.18065603799187,None,left,1,1.2036266749491915,106.18065603799187,None,,,01,pepe bácsi,2020_May_19_1828,lukacsagi_lexdec,3.2.4,59.991468722170595,
blocks/block_27.csv,,,,0,26,26,26,,,,,,,,,,,,,,,,01,pepe bácsi,2020_May_19_1828,lukacsagi_lexdec,3.2.4,59.991468722170595,
blocks/block_28.csv,orientál,28,left,0,27,27,27,0,0,0,19,,,108.09812027501175,None,left,1,0.8141303079901263,108.09812027501175,None,,,01,pepe bácsi,2020_May_19_1828,lukacsagi_lexdec,3.2.4,59.991468722170595,
blocks/block_28.csv,szuperintelligens,28,left,0,27,27,27,0,1,1,9,,,109.43346400099108,None,left,1,0.6787323009921238,109.43346400099108,None,,,01,pepe bácsi,2020_May_19_1828,lukacsagi_lexdec,3.2.4,59.991468722170595,
blocks/block_28.csv,,,,0,27,27,27,,,,,,,,,,,,,,,,01,pepe bácsi,2020_May_19_1828,lukacsagi_lexdec,3.2.4,59.991468722170595,
blocks/block_29.csv,aprimitmus,29,right,0,28,28,28,0,0,0,22,,,110.80085028102621,None,right,1,2.719360786024481,110.80085028102621,None,,,01,pepe bácsi,2020_May_19_1828,lukacsagi_lexdec,3.2.4,59.991468722170595,
blocks/block_29.csv,oszcillál,29,left,0,28,28,28,0,1,1,14,,,114.03703402297106,None,left,1,0.6432258320273831,114.03703402297106,None,,,01,pepe bácsi,2020_May_19_1828,lukacsagi_lexdec,3.2.4,59.991468722170595,
blocks/block_29.csv,,,,0,28,28,28,,,,,,,,,,,,,,,,01,pepe bácsi,2020_May_19_1828,lukacsagi_lexdec,3.2.4,59.991468722170595,
blocks/block_30.csv,kerem,30,right,0,29,29,29,0,0,0,6,,,115.37067610601662,None,right,1,0.9095837529748678,115.37067610601662,None,,,01,pepe bácsi,2020_May_19_1828,lukacsagi_lexdec,3.2.4,59.991468722170595,
blocks/block_30.csv,szigon,30,right,0,29,29,29,0,1,1,21,,,116.7877964139916,None,right,1,1.700465333997272,116.7877964139916,None,,,01,pepe bácsi,2020_May_19_1828,lukacsagi_lexdec,3.2.4,59.991468722170595,
blocks/block_30.csv,,,,0,29,29,29,,,,,,,,,,,,,,,,01,pepe bácsi,2020_May_19_1828,lukacsagi_lexdec,3.2.4,59.991468722170595,
blocks/block_31.csv,akarózik,31,left,0,30,30,30,0,0,0,6,,,119.17351107898867,None,left,1,1.6827493869932368,119.17351107898867,None,,,01,pepe bácsi,2020_May_19_1828,lukacsagi_lexdec,3.2.4,59.991468722170595,
blocks/block_31.csv,tehermentesít,31,left,0,30,30,30,0,1,1,23,,,121.35777864401462,None,left,1,10.88248496397864,121.35777864401462,None,,,01,pepe bácsi,2020_May_19_1828,lukacsagi_lexdec,3.2.4,59.991468722170595,
blocks/block_31.csv,,,,0,30,30,30,,,,,,,,,,,,,,,,01,pepe bácsi,2020_May_19_1828,lukacsagi_lexdec,3.2.4,59.991468722170595,
blocks/block_32.csv,demelepi,32,right,0,31,31,31,0,0,0,7,,,132.96511837397702,None,right,1,0.7151397129637189,132.96511837397702,None,,,01,pepe bácsi,2020_May_19_1828,lukacsagi_lexdec,3.2.4,59.991468722170595,
blocks/block_32.csv,nubulhangy,32,right,0,31,31,31,0,1,1,21,,,134.18379448901396,None,right,1,1.632467292016372,134.18379448901396,None,,,01,pepe bácsi,2020_May_19_1828,lukacsagi_lexdec,3.2.4,59.991468722170595,
blocks/block_32.csv,,,,0,31,31,31,,,,,,,,,,,,,,,,01,pepe bácsi,2020_May_19_1828,lukacsagi_lexdec,3.2.4,59.991468722170595,
blocks/block_33.csv,kvacsvagos,33,right,0,32,32,32,0,0,0,18,,,136.51807521597948,None,right,1,0.7861862129648216,136.51807521597948,None,,,01,pepe bácsi,2020_May_19_1828,lukacsagi_lexdec,3.2.4,59.991468722170595,
blocks/block_33.csv,sziesztázik,33,left,0,32,32,32,0,1,1,17,,,137.81846192502417,None,left,1,1.5497989060240798,137.81846192502417,None,,,01,pepe bácsi,2020_May_19_1828,lukacsagi_lexdec,3.2.4,59.991468722170595,
blocks/block_33.csv,,,,0,32,32,32,,,,,,,,,,,,,,,,01,pepe bácsi,2020_May_19_1828,lukacsagi_lexdec,3.2.4,59.991468722170595,
blocks/block_34.csv,levélnehezék,34,left,0,33,33,33,0,0,0,12,,,140.07107124500908,None,left,1,1.0091912649804726,140.07107124500908,None,,,01,pepe bácsi,2020_May_19_1828,lukacsagi_lexdec,3.2.4,59.991468722170595,
blocks/block_34.csv,mutoktorla,34,right,0,33,33,33,0,1,1,0,,,141.58818648097804,None,right,1,0.8200993580394424,141.58818648097804,None,,,01,pepe bácsi,2020_May_19_1828,lukacsagi_lexdec,3.2.4,59.991468722170595,
blocks/block_34.csv,,,,0,33,33,33,,,,,,,,,,,,,,,,01,pepe bácsi,2020_May_19_1828,lukacsagi_lexdec,3.2.4,59.991468722170595,
blocks/block_35.csv,lumpenproletariátus,35,left,0,34,34,34,0,0,0,15,,,143.17206466698553,None,left,1,1.2841885330271907,143.17206466698553,None,,,01,pepe bácsi,2020_May_19_1828,lukacsagi_lexdec,3.2.4,59.991468722170595,
blocks/block_35.csv,vizesvödör,35,left,0,34,34,34,0,1,1,14,,,144.9577627539984,None,left,1,0.8984962160466239,144.9577627539984,None,,,01,pepe bácsi,2020_May_19_1828,lukacsagi_lexdec,3.2.4,59.991468722170595,
blocks/block_35.csv,,,,0,34,34,34,,,,,,,,,,,,,,,,01,pepe bácsi,2020_May_19_1828,lukacsagi_lexdec,3.2.4,59.991468722170595,
blocks/block_36.csv,multiregionális,36,left,0,35,35,35,0,0,0,6,,,146.5749458419741,None,left,1,1.8012732760398649,146.5749458419741,None,,,01,pepe bácsi,2020_May_19_1828,lukacsagi_lexdec,3.2.4,59.991468722170595,
blocks/block_36.csv,hízelkedik,36,left,0,35,35,35,0,1,1,23,,,148.89406051498372,None,left,1,0.5782021149643697,148.89406051498372,None,,,01,pepe bácsi,2020_May_19_1828,lukacsagi_lexdec,3.2.4,59.991468722170595,
blocks/block_36.csv,,,,0,35,35,35,,,,,,,,,,,,,,,,01,pepe bácsi,2020_May_19_1828,lukacsagi_lexdec,3.2.4,59.991468722170595,
blocks/block_37.csv,tendírozó,37,right,0,36,36,36,0,0,0,7,,,150.19456377398456,None,left,0,1.3577219959697686,150.19456377398456,None,,,01,pepe bácsi,2020_May_19_1828,lukacsagi_lexdec,3.2.4,59.991468722170595,
blocks/block_37.csv,bouillon,37,left,0,36,36,36,0,1,1,17,,,152.06185798399383,None,left,1,1.6184251439990476,152.06185798399383,None,,,01,pepe bácsi,2020_May_19_1828,lukacsagi_lexdec,3.2.4,59.991468722170595,
blocks/block_37.csv,köpdös,37,left,0,36,36,36,0,2,2,6,,,154.18087302701315,None,left,1,0.7314017270109616,154.18087302701315,None,,,01,pepe bácsi,2020_May_19_1828,lukacsagi_lexdec,3.2.4,59.991468722170595,
blocks/block_37.csv,,,,0,36,36,36,,,,,,,,,,,,,,,,01,pepe bácsi,2020_May_19_1828,lukacsagi_lexdec,3.2.4,59.991468722170595,
blocks/block_38.csv,engedetlenkedik,38,left,0,37,37,37,0,0,0,1,,,155.6647481949767,None,left,1,0.6314788369927555,155.6647481949767,None,,,01,pepe bácsi,2020_May_19_1828,lukacsagi_lexdec,3.2.4,59.991468722170595,
blocks/block_38.csv,harsonázik,38,left,0,37,37,37,0,1,1,17,,,156.79856190102873,None,left,1,0.5296940929838456,156.79856190102873,None,,,01,pepe bácsi,2020_May_19_1828,lukacsagi_lexdec,3.2.4,59.991468722170595,
blocks/block_38.csv,,,,0,37,37,37,,,,,,,,,,,,,,,,01,pepe bácsi,2020_May_19_1828,lukacsagi_lexdec,3.2.4,59.991468722170595,
blocks/block_39.csv,silabizál,39,left,0,38,38,38,0,0,0,19,,,158.06561601901194,None,left,1,0.550660363980569,158.06561601901194,None,,,01,pepe bácsi,2020_May_19_1828,lukacsagi_lexdec,3.2.4,59.991468722170595,
blocks/block_39.csv,kihalász,39,left,0,38,38,38,0,1,1,16,,,159.11766765400534,None,left,1,0.442597487999592,159.11766765400534,None,,,01,pepe bácsi,2020_May_19_1828,lukacsagi_lexdec,3.2.4,59.991468722170595,
blocks/block_39.csv,,,,0,38,38,38,,,,,,,,,,,,,,,,01,pepe bácsi,2020_May_19_1828,lukacsagi_lexdec,3.2.4,59.991468722170595,
blocks/block_40.csv,hormati,40,right,0,39,39,39,0,0,0,8,,,160.30144801101414,None,right,1,0.8028139829984866,160.30144801101414,None,,,01,pepe bácsi,2020_May_19_1828,lukacsagi_lexdec,3.2.4,59.991468722170595,
blocks/block_40.csv,igásjószág,40,left,0,39,39,39,0,1,1,15,,,161.61849471897585,None,left,1,0.6457663259934634,161.61849471897585,None,,,01,pepe bácsi,2020_May_19_1828,lukacsagi_lexdec,3.2.4,59.991468722170595,
blocks/block_40.csv,,,,0,39,39,39,,,,,,,,,,,,,,,,01,pepe bácsi,2020_May_19_1828,lukacsagi_lexdec,3.2.4,59.991468722170595,
blocks/block_41.csv,bombáltó,41,right,0,40,40,40,0,0,0,19,,,163.035700479988,None,right,1,0.9325795110198669,163.035700479988,None,,,01,pepe bácsi,2020_May_19_1828,lukacsagi_lexdec,3.2.4,59.991468722170595,
blocks/block_41.csv,kardorrú,41,left,0,40,40,40,0,1,1,22,,,164.4711530630011,None,left,1,1.0650501240161248,164.4711530630011,None,,,01,pepe bácsi,2020_May_19_1828,lukacsagi_lexdec,3.2.4,59.991468722170595,
blocks/block_41.csv,,,,0,40,40,40,,,,,,,,,,,,,,,,01,pepe bácsi,2020_May_19_1828,lukacsagi_lexdec,3.2.4,59.991468722170595,
blocks/block_42.csv,grancs,42,right,0,41,41,41,0,0,0,22,,,166.27192808198743,None,right,1,0.7283154809847474,166.27192808198743,None,,,01,pepe bácsi,2020_May_19_1828,lukacsagi_lexdec,3.2.4,59.991468722170595,
blocks/block_42.csv,keserűgyökér,42,left,0,41,41,41,0,1,1,0,,,167.5055872380035,None,left,1,0.9506924839806743,167.5055872380035,None,,,01,pepe bácsi,2020_May_19_1828,lukacsagi_lexdec,3.2.4,59.991468722170595,
blocks/block_42.csv,,,,0,41,41,41,,,,,,,,,,,,,,,,01,pepe bácsi,2020_May_19_1828,lukacsagi_lexdec,3.2.4,59.991468722170595,
blocks/block_43.csv,döföl,43,left,0,42,42,42,0,0,0,3,,,169.20785300899297,None,left,1,1.1924065469647758,169.20785300899297,None,,,01,pepe bácsi,2020_May_19_1828,lukacsagi_lexdec,3.2.4,59.991468722170595,
blocks/block_43.csv,invonult,43,right,0,42,42,42,0,1,1,15,,,170.90850233501988,None,right,1,1.7477942829718813,170.90850233501988,None,,,01,pepe bácsi,2020_May_19_1828,lukacsagi_lexdec,3.2.4,59.991468722170595,
blocks/block_43.csv,,,,0,42,42,42,,,,,,,,,,,,,,,,01,pepe bácsi,2020_May_19_1828,lukacsagi_lexdec,3.2.4,59.991468722170595,
blocks/block_44.csv,hivatalnokoskodik,44,left,0,43,43,43,0,0,0,7,,,173.46107855899027,None,left,1,0.8272206190158613,173.46107855899027,None,,,01,pepe bácsi,2020_May_19_1828,lukacsagi_lexdec,3.2.4,59.991468722170595,
blocks/block_44.csv,hajcsárkodik,44,left,0,43,43,43,0,1,1,17,,,174.7948901830241,None,left,1,0.8053673640242778,174.7948901830241,None,,,01,pepe bácsi,2020_May_19_1828,lukacsagi_lexdec,3.2.4,59.991468722170595,
blocks/block_44.csv,,,,0,43,43,43,,,,,,,,,,,,,,,,01,pepe bácsi,2020_May_19_1828,lukacsagi_lexdec,3.2.4,59.991468722170595,
blocks/block_45.csv,heltetett,45,right,0,44,44,44,0,0,0,10,,,176.36206702201162,None,right,1,0.7581909089931287,176.36206702201162,None,,,01,pepe bácsi,2020_May_19_1828,lukacsagi_lexdec,3.2.4,59.991468722170595,
blocks/block_45.csv,kilolvai,45,right,0,44,44,44,0,1,1,15,,,177.62916831998155,None,right,1,0.931094061001204,177.62916831998155,None,,,01,pepe bácsi,2020_May_19_1828,lukacsagi_lexdec,3.2.4,59.991468722170595,
blocks/block_45.csv,,,,0,44,44,44,,,,,,,,,,,,,,,,01,pepe bácsi,2020_May_19_1828,lukacsagi_lexdec,3.2.4,59.991468722170595,
blocks/block_46.csv,kurzivál,46,left,0,45,45,45,0,0,0,0,,,179.33142236399,None,left,1,0.70078068098519,179.33142236399,None,,,01,pepe bácsi,2020_May_19_1828,lukacsagi_lexdec,3.2.4,59.991468722170595,
blocks/block_46.csv,vésségi,46,right,0,45,45,45,0,1,1,16,,,180.54829409200465,None,right,1,1.1159762309980579,180.54829409200465,None,,,01,pepe bácsi,2020_May_19_1828,lukacsagi_lexdec,3.2.4,59.991468722170595,
blocks/block_46.csv,,,,0,45,45,45,,,,,,,,,,,,,,,,01,pepe bácsi,2020_May_19_1828,lukacsagi_lexdec,3.2.4,59.991468722170595,
blocks/block_47.csv,alka,47,right,0,46,46,46,0,0,0,2,,,182.46586968901101,None,right,1,1.28634598699864,182.46586968901101,None,,,01,pepe bácsi,2020_May_19_1828,lukacsagi_lexdec,3.2.4,59.991468722170595,
blocks/block_47.csv,periodogram,47,left,0,46,46,46,0,1,1,6,,,184.26812611502828,None,left,1,1.0281383129768074,184.26812611502828,None,,,01,pepe bácsi,2020_May_19_1828,lukacsagi_lexdec,3.2.4,59.991468722170595,
blocks/block_47.csv,,,,0,46,46,46,,,,,,,,,,,,,,,,01,pepe bácsi,2020_May_19_1828,lukacsagi_lexdec,3.2.4,59.991468722170595,
blocks/block_48.csv,tamia,48,right,0,47,47,47,0,0,0,12,,,186.06877585902112,None,right,1,0.8035089120385237,186.06877585902112,None,,,01,pepe bácsi,2020_May_19_1828,lukacsagi_lexdec,3.2.4,59.991468722170595,
blocks/block_48.csv,utálkodik,48,left,0,47,47,47,0,1,1,3,,,187.38592412602156,None,left,1,0.9982914110296406,187.38592412602156,None,,,01,pepe bácsi,2020_May_19_1828,lukacsagi_lexdec,3.2.4,59.991468722170595,
blocks/block_48.csv,,,,0,47,47,47,,,,,,,,,,,,,,,,01,pepe bácsi,2020_May_19_1828,lukacsagi_lexdec,3.2.4,59.991468722170595,
blocks/block_49.csv,lazúroz,49,left,0,48,48,48,0,0,0,11,,,189.20475895202253,None,left,1,1.4995000580092892,189.20475895202253,None,,,01,pepe bácsi,2020_May_19_1828,lukacsagi_lexdec,3.2.4,59.991468722170595,
blocks/block_49.csv,oktalankodik,49,left,0,48,48,48,0,1,1,9,,,191.20570540899644,None,left,1,0.8025544679840095,191.20570540899644,None,,,01,pepe bácsi,2020_May_19_1828,lukacsagi_lexdec,3.2.4,59.991468722170595,
blocks/block_49.csv,,,,0,48,48,48,,,,,,,,,,,,,,,,01,pepe bácsi,2020_May_19_1828,lukacsagi_lexdec,3.2.4,59.991468722170595,
blocks/block_50.csv,gyámpont,50,left,0,49,49,49,0,0,0,22,,,192.7894421700039,None,left,1,2.202738037041854,192.7894421700039,None,,,01,pepe bácsi,2020_May_19_1828,lukacsagi_lexdec,3.2.4,59.991468722170595,
blocks/block_50.csv,nádaz,50,left,0,49,49,49,0,1,1,21,,,195.50877345801564,None,left,1,0.8354387489962392,195.50877345801564,None,,,01,pepe bácsi,2020_May_19_1828,lukacsagi_lexdec,3.2.4,59.991468722170595,
blocks/block_50.csv,,,,0,49,49,49,,,,,,,,,,,,,,,,01,pepe bácsi,2020_May_19_1828,lukacsagi_lexdec,3.2.4,59.991468722170595,
,,,,,,,,,,,,,,,,,,,,,196.95924938301323,None,,,,,,,
