block_names,word,difficulty,correct_answer,across_block.thisRepN,across_block.thisTrialN,across_block.thisN,across_block.thisIndex,within_block.thisRepN,within_block.thisTrialN,within_block.thisN,within_block.thisIndex,jonapot_szoveg.started,jonapot_szoveg.stopped,szo_kiir.started,szo_kiir.stopped,resp.keys,resp.corr,resp.rt,resp.started,resp.stopped,koszi_szoveg.started,koszi_szoveg.stopped,session,participant,date,expName,psychopyVersion,frameRate,
blocks/block_1.csv,ponyai,1,right,0,0,0,0,0,0,0,11,11.827378686983138,None,49.00385405000998,None,right,1,1.4399945439654402,49.00385405000998,None,,,01,timike,2020_May_19_2107,lukacsagi_lexdec,3.2.4,59.68986993453983,
blocks/block_1.csv,kép,1,left,0,0,0,0,0,1,1,23,,,50.95447867800249,None,left,1,0.8413695939816535,50.95447867800249,None,,,01,timike,2020_May_19_2107,lukacsagi_lexdec,3.2.4,59.68986993453983,
blocks/block_1.csv,,,,0,0,0,0,,,,,,,,,,,,,,,,01,timike,2020_May_19_2107,lukacsagi_lexdec,3.2.4,59.68986993453983,
blocks/block_2.csv,számít,2,left,0,1,1,1,0,0,0,11,,,52.339415965019725,None,left,1,0.8564145830459893,52.339415965019725,None,,,01,timike,2020_May_19_2107,lukacsagi_lexdec,3.2.4,59.68986993453983,
blocks/block_2.csv,rész,2,left,0,1,1,1,0,1,1,14,,,53.707163240003865,None,left,1,0.6566696059890091,53.707163240003865,None,,,01,timike,2020_May_19_2107,lukacsagi_lexdec,3.2.4,59.68986993453983,
blocks/block_2.csv,,,,0,1,1,1,,,,,,,,,,,,,,,,01,timike,2020_May_19_2107,lukacsagi_lexdec,3.2.4,59.68986993453983,
blocks/block_3.csv,krákfai,3,right,0,2,2,2,0,0,0,7,,,54.92440290900413,None,right,1,1.2554298880277202,54.92440290900413,None,,,01,timike,2020_May_19_2107,lukacsagi_lexdec,3.2.4,59.68986993453983,
blocks/block_3.csv,dolgozik,3,left,0,2,2,2,0,1,1,3,,,56.69138199597364,None,left,1,0.7124474360025488,56.69138199597364,None,,,01,timike,2020_May_19_2107,lukacsagi_lexdec,3.2.4,59.68986993453983,
blocks/block_3.csv,,,,0,2,2,2,,,,,,,,,,,,,,,,01,timike,2020_May_19_2107,lukacsagi_lexdec,3.2.4,59.68986993453983,
blocks/block_4.csv,kétikussi,4,right,0,3,3,3,0,0,0,20,,,57.94376563100377,None,right,1,1.6760654660174623,57.94376563100377,None,,,01,timike,2020_May_19_2107,lukacsagi_lexdec,3.2.4,59.68986993453983,
blocks/block_4.csv,plusz,4,left,0,3,3,3,0,1,1,16,,,60.12764141801745,None,left,1,0.6601865030243061,60.12764141801745,None,,,01,timike,2020_May_19_2107,lukacsagi_lexdec,3.2.4,59.68986993453983,
blocks/block_4.csv,,,,0,3,3,3,,,,,,,,,,,,,,,,01,timike,2020_May_19_2107,lukacsagi_lexdec,3.2.4,59.68986993453983,
blocks/block_5.csv,vörös,5,left,0,4,4,4,0,0,0,16,,,61.3282927289838,None,left,1,0.7875380799523555,61.3282927289838,None,,,01,timike,2020_May_19_2107,lukacsagi_lexdec,3.2.4,59.68986993453983,
blocks/block_5.csv,komplex,5,left,0,4,4,4,0,1,1,14,,,62.630256591015495,None,left,1,0.9415723099955358,62.630256591015495,None,,,01,timike,2020_May_19_2107,lukacsagi_lexdec,3.2.4,59.68986993453983,
blocks/block_5.csv,,,,0,4,4,4,,,,,,,,,,,,,,,,01,timike,2020_May_19_2107,lukacsagi_lexdec,3.2.4,59.68986993453983,
blocks/block_6.csv,mobil,6,left,0,5,5,5,0,0,0,1,,,64.13097518897848,None,left,1,0.7608665699954145,64.13097518897848,None,,,01,timike,2020_May_19_2107,lukacsagi_lexdec,3.2.4,59.68986993453983,
blocks/block_6.csv,olaj,6,left,0,5,5,5,0,1,1,15,,,65.39782717596972,None,left,1,0.6779967829934321,65.39782717596972,None,,,01,timike,2020_May_19_2107,lukacsagi_lexdec,3.2.4,59.68986993453983,
blocks/block_6.csv,,,,0,5,5,5,,,,,,,,,,,,,,,,01,timike,2020_May_19_2107,lukacsagi_lexdec,3.2.4,59.68986993453983,
blocks/block_7.csv,bakú,7,right,0,6,6,6,0,0,0,2,,,66.64854069298599,None,right,1,0.8193109059939161,66.64854069298599,None,,,01,timike,2020_May_19_2107,lukacsagi_lexdec,3.2.4,59.68986993453983,
blocks/block_7.csv,bajnok,7,left,0,6,6,6,0,1,1,14,,,67.9837715930189,None,left,1,0.8120567909791134,67.9837715930189,None,,,01,timike,2020_May_19_2107,lukacsagi_lexdec,3.2.4,59.68986993453983,
blocks/block_7.csv,,,,0,6,6,6,,,,,,,,,,,,,,,,01,timike,2020_May_19_2107,lukacsagi_lexdec,3.2.4,59.68986993453983,
blocks/block_8.csv,kiskolható,8,right,0,7,7,7,0,0,0,2,,,69.3678355300217,None,right,1,1.283947306976188,69.3678355300217,None,,,01,timike,2020_May_19_2107,lukacsagi_lexdec,3.2.4,59.68986993453983,
blocks/block_8.csv,felsőfokú,8,left,0,7,7,7,0,1,1,9,,,71.1681773129967,None,left,1,0.9556512029957958,71.1681773129967,None,,,01,timike,2020_May_19_2107,lukacsagi_lexdec,3.2.4,59.68986993453983,
blocks/block_8.csv,,,,0,7,7,7,,,,,,,,,,,,,,,,01,timike,2020_May_19_2107,lukacsagi_lexdec,3.2.4,59.68986993453983,
blocks/block_9.csv,alukandós,9,right,0,8,8,8,0,0,0,5,,,72.7040287629934,None,right,1,1.34781947103329,72.7040287629934,None,,,01,timike,2020_May_19_2107,lukacsagi_lexdec,3.2.4,59.68986993453983,
blocks/block_9.csv,likálható,9,right,0,8,8,8,0,1,1,1,,,74.554468643968,None,right,1,1.3453619520296343,74.554468643968,None,,,01,timike,2020_May_19_2107,lukacsagi_lexdec,3.2.4,59.68986993453983,
blocks/block_9.csv,,,,0,8,8,8,,,,,,,,,,,,,,,,01,timike,2020_May_19_2107,lukacsagi_lexdec,3.2.4,59.68986993453983,
blocks/block_10.csv,trend,10,left,0,9,9,9,0,0,0,7,,,76.4886383509729,None,left,1,0.8111929160077125,76.4886383509729,None,,,01,timike,2020_May_19_2107,lukacsagi_lexdec,3.2.4,59.68986993453983,
blocks/block_10.csv,környezetvédelem,10,left,0,9,9,9,0,1,1,20,,,77.80723024299368,None,left,1,1.3246075279894285,77.80723024299368,None,,,01,timike,2020_May_19_2107,lukacsagi_lexdec,3.2.4,59.68986993453983,
blocks/block_10.csv,,,,0,9,9,9,,,,,,,,,,,,,,,,01,timike,2020_May_19_2107,lukacsagi_lexdec,3.2.4,59.68986993453983,
blocks/block_11.csv,játszótér,11,left,0,10,10,10,0,0,0,7,,,79.7580798289855,None,left,1,0.7177035369677469,79.7580798289855,None,,,01,timike,2020_May_19_2107,lukacsagi_lexdec,3.2.4,59.68986993453983,
blocks/block_11.csv,forgatókönyv,11,left,0,10,10,10,0,1,1,19,,,81.00833344500279,None,left,1,0.5714954899740405,81.00833344500279,None,,,01,timike,2020_May_19_2107,lukacsagi_lexdec,3.2.4,59.68986993453983,
blocks/block_11.csv,,,,0,10,10,10,,,,,,,,,,,,,,,,01,timike,2020_May_19_2107,lukacsagi_lexdec,3.2.4,59.68986993453983,
blocks/block_12.csv,gyóka,12,right,0,11,11,11,0,0,0,6,,,82.1756693419884,None,right,1,0.8201627139933407,82.1756693419884,None,,,01,timike,2020_May_19_2107,lukacsagi_lexdec,3.2.4,59.68986993453983,
blocks/block_12.csv,visszín,12,right,0,11,11,11,0,1,1,21,,,83.51081844599685,None,right,1,1.3490135049796663,83.51081844599685,None,,,01,timike,2020_May_19_2107,lukacsagi_lexdec,3.2.4,59.68986993453983,
blocks/block_12.csv,,,,0,11,11,11,,,,,,,,,,,,,,,,01,timike,2020_May_19_2107,lukacsagi_lexdec,3.2.4,59.68986993453983,
blocks/block_13.csv,vízimény,13,right,0,12,12,12,0,0,0,6,,,85.44532729999628,None,right,1,1.0705458460142836,85.44532729999628,None,,,01,timike,2020_May_19_2107,lukacsagi_lexdec,3.2.4,59.68986993453983,
blocks/block_13.csv,rom,13,left,0,12,12,12,0,1,1,17,,,87.02875779400347,None,left,1,0.8790712549816817,87.02875779400347,None,,,01,timike,2020_May_19_2107,lukacsagi_lexdec,3.2.4,59.68986993453983,
blocks/block_13.csv,,,,0,12,12,12,,,,,,,,,,,,,,,,01,timike,2020_May_19_2107,lukacsagi_lexdec,3.2.4,59.68986993453983,
blocks/block_14.csv,rejtőzik,14,left,0,13,13,13,0,0,0,16,,,88.51447998400545,None,left,1,0.9133094549761154,88.51447998400545,None,,,01,timike,2020_May_19_2107,lukacsagi_lexdec,3.2.4,59.68986993453983,
blocks/block_14.csv,csomozdoni,14,right,0,13,13,13,0,1,1,8,,,89.93146016000537,None,right,1,0.9123674579896033,89.93146016000537,None,,,01,timike,2020_May_19_2107,lukacsagi_lexdec,3.2.4,59.68986993453983,
blocks/block_14.csv,,,,0,13,13,13,,,,,,,,,,,,,,,,01,timike,2020_May_19_2107,lukacsagi_lexdec,3.2.4,59.68986993453983,
blocks/block_15.csv,vélekedik,15,left,0,14,14,14,0,0,0,4,,,91.44894561299589,None,left,1,0.9068918070406653,91.44894561299589,None,,,01,timike,2020_May_19_2107,lukacsagi_lexdec,3.2.4,59.68986993453983,
blocks/block_15.csv,olvad,15,left,0,14,14,14,0,1,1,22,,,92.86757301702164,None,left,1,0.8322515379986726,92.86757301702164,None,,,01,timike,2020_May_19_2107,lukacsagi_lexdec,3.2.4,59.68986993453983,
blocks/block_15.csv,,,,0,14,14,14,,,,,,,,,,,,,,,,01,timike,2020_May_19_2107,lukacsagi_lexdec,3.2.4,59.68986993453983,
blocks/block_16.csv,ólom,16,left,0,15,15,15,0,0,0,16,,,94.31841682398226,None,left,1,0.6534387490246445,94.31841682398226,None,,,01,timike,2020_May_19_2107,lukacsagi_lexdec,3.2.4,59.68986993453983,
blocks/block_16.csv,kiskanál,16,left,0,15,15,15,0,1,1,3,,,95.485093588999,None,left,1,0.8627353330375627,95.485093588999,None,,,01,timike,2020_May_19_2107,lukacsagi_lexdec,3.2.4,59.68986993453983,
blocks/block_16.csv,,,,0,15,15,15,,,,,,,,,,,,,,,,01,timike,2020_May_19_2107,lukacsagi_lexdec,3.2.4,59.68986993453983,
blocks/block_17.csv,napkollektor,17,left,0,16,16,16,0,0,0,1,,,96.96910089597804,None,left,1,0.8747308970196173,96.96910089597804,None,,,01,timike,2020_May_19_2107,lukacsagi_lexdec,3.2.4,59.68986993453983,
blocks/block_17.csv,vetekszik,17,left,0,16,16,16,0,1,1,13,,,98.35438905301271,None,left,1,0.9454436490195803,98.35438905301271,None,,,01,timike,2020_May_19_2107,lukacsagi_lexdec,3.2.4,59.68986993453983,
blocks/block_17.csv,,,,0,16,16,16,,,,,,,,,,,,,,,,01,timike,2020_May_19_2107,lukacsagi_lexdec,3.2.4,59.68986993453983,
blocks/block_18.csv,ködik,18,right,0,17,17,17,0,0,0,8,,,99.9553465039935,None,right,1,0.8645429380121641,99.9553465039935,None,,,01,timike,2020_May_19_2107,lukacsagi_lexdec,3.2.4,59.68986993453983,
blocks/block_18.csv,kóser,18,left,0,17,17,17,0,1,1,18,,,101.32215329702012,None,left,1,0.8576905960217118,101.32215329702012,None,,,01,timike,2020_May_19_2107,lukacsagi_lexdec,3.2.4,59.68986993453983,
blocks/block_18.csv,,,,0,17,17,17,,,,,,,,,,,,,,,,01,timike,2020_May_19_2107,lukacsagi_lexdec,3.2.4,59.68986993453983,
blocks/block_19.csv,zörög,19,left,0,18,18,18,0,0,0,19,,,102.82448248198489,None,left,1,1.0353582780226134,102.82448248198489,None,,,01,timike,2020_May_19_2107,lukacsagi_lexdec,3.2.4,59.68986993453983,
blocks/block_19.csv,hullámzik,19,left,0,18,18,18,0,1,1,3,,,104.37503272999311,None,left,1,0.9167937439633533,104.37503272999311,None,,,01,timike,2020_May_19_2107,lukacsagi_lexdec,3.2.4,59.68986993453983,
blocks/block_19.csv,,,,0,18,18,18,,,,,,,,,,,,,,,,01,timike,2020_May_19_2107,lukacsagi_lexdec,3.2.4,59.68986993453983,
blocks/block_20.csv,pitiáner,20,left,0,19,19,19,0,0,0,11,,,105.90913517697481,None,left,1,0.9106949460110627,105.90913517697481,None,,,01,timike,2020_May_19_2107,lukacsagi_lexdec,3.2.4,59.68986993453983,
blocks/block_20.csv,presbitérium,20,left,0,19,19,19,0,1,1,9,,,107.32597935799276,None,left,1,1.1818238730193116,107.32597935799276,None,,,01,timike,2020_May_19_2107,lukacsagi_lexdec,3.2.4,59.68986993453983,
blocks/block_20.csv,,,,0,19,19,19,,,,,,,,,,,,,,,,01,timike,2020_May_19_2107,lukacsagi_lexdec,3.2.4,59.68986993453983,
blocks/block_21.csv,teríték,21,left,0,20,20,20,0,0,0,5,,,109.14509713702137,None,left,1,0.8987208880134858,109.14509713702137,None,,,01,timike,2020_May_19_2107,lukacsagi_lexdec,3.2.4,59.68986993453983,
blocks/block_21.csv,gyapot,21,left,0,20,20,20,0,1,1,11,,,110.5454297339893,None,left,1,0.7944036899716593,110.5454297339893,None,,,01,timike,2020_May_19_2107,lukacsagi_lexdec,3.2.4,59.68986993453983,
blocks/block_21.csv,,,,0,20,20,20,,,,,,,,,,,,,,,,01,timike,2020_May_19_2107,lukacsagi_lexdec,3.2.4,59.68986993453983,
blocks/block_22.csv,újgazdag,22,left,0,21,21,21,0,0,0,13,,,111.97947920899605,None,left,1,0.5923520670039579,111.97947920899605,None,,,01,timike,2020_May_19_2107,lukacsagi_lexdec,3.2.4,59.68986993453983,
blocks/block_22.csv,bolyodás,22,right,0,21,21,21,0,1,1,2,,,113.08139098901302,None,right,1,1.0343638930353336,113.08139098901302,None,,,01,timike,2020_May_19_2107,lukacsagi_lexdec,3.2.4,59.68986993453983,
blocks/block_22.csv,,,,0,21,21,21,,,,,,,,,,,,,,,,01,timike,2020_May_19_2107,lukacsagi_lexdec,3.2.4,59.68986993453983,
blocks/block_23.csv,biotermék,23,left,0,22,22,22,0,0,0,8,,,114.78210976300761,None,left,1,0.7817227399791591,114.78210976300761,None,,,01,timike,2020_May_19_2107,lukacsagi_lexdec,3.2.4,59.68986993453983,
blocks/block_23.csv,deutérium,23,left,0,22,22,22,0,1,1,16,,,116.06570370402187,None,right,0,0.9061259469599463,116.06570370402187,None,,,01,timike,2020_May_19_2107,lukacsagi_lexdec,3.2.4,59.68986993453983,
blocks/block_23.csv,magánnyugdíj,23,left,0,22,22,22,0,2,2,19,,,117.48285221902188,None,left,1,1.0809792679501697,117.48285221902188,None,,,01,timike,2020_May_19_2107,lukacsagi_lexdec,3.2.4,59.68986993453983,
blocks/block_23.csv,,,,0,22,22,22,,,,,,,,,,,,,,,,01,timike,2020_May_19_2107,lukacsagi_lexdec,3.2.4,59.68986993453983,
blocks/block_24.csv,ború,24,left,0,23,23,23,0,0,0,16,,,119.25219290802488,None,left,1,1.5596361379721202,119.25219290802488,None,,,01,timike,2020_May_19_2107,lukacsagi_lexdec,3.2.4,59.68986993453983,
blocks/block_24.csv,tiprochint,24,right,0,23,23,23,0,1,1,12,,,121.31922016100725,None,right,1,2.5966082189697772,121.31922016100725,None,,,01,timike,2020_May_19_2107,lukacsagi_lexdec,3.2.4,59.68986993453983,
blocks/block_24.csv,,,,0,23,23,23,,,,,,,,,,,,,,,,01,timike,2020_May_19_2107,lukacsagi_lexdec,3.2.4,59.68986993453983,
blocks/block_25.csv,abszint,25,left,0,24,24,24,0,0,0,4,,,124.57232280098833,None,left,1,1.3755113969673403,124.57232280098833,None,,,01,timike,2020_May_19_2107,lukacsagi_lexdec,3.2.4,59.68986993453983,
blocks/block_25.csv,megalitikus,25,left,0,24,24,24,0,1,1,1,,,126.45604744501179,None,right,0,3.019713685964234,126.45604744501179,None,,,01,timike,2020_May_19_2107,lukacsagi_lexdec,3.2.4,59.68986993453983,
blocks/block_25.csv,tiszogó,25,right,0,24,24,24,0,2,2,9,,,129.9922444089898,None,right,1,2.0675147279980592,129.9922444089898,None,,,01,timike,2020_May_19_2107,lukacsagi_lexdec,3.2.4,59.68986993453983,
blocks/block_25.csv,,,,0,24,24,24,,,,,,,,,,,,,,,,01,timike,2020_May_19_2107,lukacsagi_lexdec,3.2.4,59.68986993453983,
blocks/block_26.csv,kurzív,26,left,0,25,25,25,0,0,0,22,,,132.71173341799295,None,left,1,1.7320988029823638,132.71173341799295,None,,,01,timike,2020_May_19_2107,lukacsagi_lexdec,3.2.4,59.68986993453983,
blocks/block_26.csv,ivarsejt,26,left,0,25,25,25,0,1,1,14,,,134.94578152202303,None,left,1,1.274072834989056,134.94578152202303,None,,,01,timike,2020_May_19_2107,lukacsagi_lexdec,3.2.4,59.68986993453983,
blocks/block_26.csv,,,,0,25,25,25,,,,,,,,,,,,,,,,01,timike,2020_May_19_2107,lukacsagi_lexdec,3.2.4,59.68986993453983,
blocks/block_27.csv,forróvérű,27,left,0,26,26,26,0,0,0,6,,,136.89660371799255,None,left,1,0.9392513890052214,136.89660371799255,None,,,01,timike,2020_May_19_2107,lukacsagi_lexdec,3.2.4,59.68986993453983,
blocks/block_27.csv,fürkész,27,left,0,26,26,26,0,1,1,8,,,138.34853862598538,None,left,1,1.3192912879749201,138.34853862598538,None,,,01,timike,2020_May_19_2107,lukacsagi_lexdec,3.2.4,59.68986993453983,
blocks/block_27.csv,,,,0,26,26,26,,,,,,,,,,,,,,,,01,timike,2020_May_19_2107,lukacsagi_lexdec,3.2.4,59.68986993453983,
blocks/block_28.csv,szichosol,28,right,0,27,27,27,0,0,0,6,,,140.3829091520165,None,right,1,1.8609174729790539,140.3829091520165,None,,,01,timike,2020_May_19_2107,lukacsagi_lexdec,3.2.4,59.68986993453983,
blocks/block_28.csv,gádosíthat,28,right,0,27,27,27,0,1,1,23,,,142.7518112270045,None,right,1,1.9880481410073116,142.7518112270045,None,,,01,timike,2020_May_19_2107,lukacsagi_lexdec,3.2.4,59.68986993453983,
blocks/block_28.csv,,,,0,27,27,27,,,,,,,,,,,,,,,,01,timike,2020_May_19_2107,lukacsagi_lexdec,3.2.4,59.68986993453983,
blocks/block_29.csv,analizál,29,left,0,28,28,28,0,0,0,23,,,145.43628477398306,None,left,1,1.3915446739993058,145.43628477398306,None,,,01,timike,2020_May_19_2107,lukacsagi_lexdec,3.2.4,59.68986993453983,
blocks/block_29.csv,totemoszlop,29,left,0,28,28,28,0,1,1,9,,,147.3367199539789,None,left,1,1.1471140490029939,147.3367199539789,None,,,01,timike,2020_May_19_2107,lukacsagi_lexdec,3.2.4,59.68986993453983,
blocks/block_29.csv,,,,0,28,28,28,,,,,,,,,,,,,,,,01,timike,2020_May_19_2107,lukacsagi_lexdec,3.2.4,59.68986993453983,
blocks/block_30.csv,tömődik,30,left,0,29,29,29,0,0,0,13,,,149.1726434219745,None,left,1,0.6711872720043175,149.1726434219745,None,,,01,timike,2020_May_19_2107,lukacsagi_lexdec,3.2.4,59.68986993453983,
blocks/block_30.csv,magnezit,30,left,0,29,29,29,0,1,1,1,,,150.35607775702374,None,right,0,1.3597521210322157,150.35607775702374,None,,,01,timike,2020_May_19_2107,lukacsagi_lexdec,3.2.4,59.68986993453983,
blocks/block_30.csv,deszkalap,30,left,0,29,29,29,0,2,2,9,,,152.22342274297262,None,right,0,2.0603391460026614,152.22342274297262,None,,,01,timike,2020_May_19_2107,lukacsagi_lexdec,3.2.4,59.68986993453983,
blocks/block_30.csv,korrodál,30,left,0,29,29,29,0,3,3,20,,,154.79275421897182,None,left,1,1.4110769649851136,154.79275421897182,None,,,01,timike,2020_May_19_2107,lukacsagi_lexdec,3.2.4,59.68986993453983,
blocks/block_30.csv,,,,0,29,29,29,,,,,,,,,,,,,,,,01,timike,2020_May_19_2107,lukacsagi_lexdec,3.2.4,59.68986993453983,
blocks/block_31.csv,leltetépet,31,right,0,30,30,30,0,0,0,17,,,156.893654229003,None,right,1,2.3421761019853875,156.893654229003,None,,,01,timike,2020_May_19_2107,lukacsagi_lexdec,3.2.4,59.68986993453983,
blocks/block_31.csv,takácsmester,31,left,0,30,30,30,0,1,1,12,,,159.74620099901222,None,left,1,1.2976454329909757,159.74620099901222,None,,,01,timike,2020_May_19_2107,lukacsagi_lexdec,3.2.4,59.68986993453983,
blocks/block_31.csv,,,,0,30,30,30,,,,,,,,,,,,,,,,01,timike,2020_May_19_2107,lukacsagi_lexdec,3.2.4,59.68986993453983,
blocks/block_32.csv,csőszház,32,left,0,31,31,31,0,0,0,11,,,161.78037881996715,None,left,1,1.3834517750074156,161.78037881996715,None,,,01,timike,2020_May_19_2107,lukacsagi_lexdec,3.2.4,59.68986993453983,
blocks/block_32.csv,agráregyetem,32,left,0,31,31,31,0,1,1,6,,,163.66574726597173,None,left,1,1.1701068290276453,163.66574726597173,None,,,01,timike,2020_May_19_2107,lukacsagi_lexdec,3.2.4,59.68986993453983,
blocks/block_32.csv,,,,0,31,31,31,,,,,,,,,,,,,,,,01,timike,2020_May_19_2107,lukacsagi_lexdec,3.2.4,59.68986993453983,
blocks/block_33.csv,allodiális,33,left,0,32,32,32,0,0,0,15,,,165.55008462601108,None,right,0,1.0777350420248695,165.55008462601108,None,,,01,timike,2020_May_19_2107,lukacsagi_lexdec,3.2.4,59.68986993453983,
blocks/block_33.csv,sziesztázik,33,left,0,32,32,32,0,1,1,17,,,167.13369691302069,None,left,1,1.0621402689721435,167.13369691302069,None,,,01,timike,2020_May_19_2107,lukacsagi_lexdec,3.2.4,59.68986993453983,
blocks/block_33.csv,körözvény,33,left,0,32,32,32,0,2,2,6,,,168.70249498198973,None,right,0,1.3972673290409148,168.70249498198973,None,,,01,timike,2020_May_19_2107,lukacsagi_lexdec,3.2.4,59.68986993453983,
blocks/block_33.csv,szánkózik,33,left,0,32,32,32,0,3,3,0,,,170.60331316199154,None,left,1,1.4245285560027696,170.60331316199154,None,,,01,timike,2020_May_19_2107,lukacsagi_lexdec,3.2.4,59.68986993453983,
blocks/block_33.csv,,,,0,32,32,32,,,,,,,,,,,,,,,,01,timike,2020_May_19_2107,lukacsagi_lexdec,3.2.4,59.68986993453983,
blocks/block_34.csv,repedtfazék,34,left,0,33,33,33,0,0,0,6,,,172.73928039101884,None,left,1,1.752553288009949,172.73928039101884,None,,,01,timike,2020_May_19_2107,lukacsagi_lexdec,3.2.4,59.68986993453983,
blocks/block_34.csv,szemestakarmány,34,left,0,33,33,33,0,1,1,14,,,175.0065192449838,None,left,1,1.861312541004736,175.0065192449838,None,,,01,timike,2020_May_19_2107,lukacsagi_lexdec,3.2.4,59.68986993453983,
blocks/block_34.csv,,,,0,33,33,33,,,,,,,,,,,,,,,,01,timike,2020_May_19_2107,lukacsagi_lexdec,3.2.4,59.68986993453983,
blocks/block_35.csv,oldolt,35,right,0,34,34,34,0,0,0,13,,,177.62430513300933,None,right,1,1.1155119080212899,177.62430513300933,None,,,01,timike,2020_May_19_2107,lukacsagi_lexdec,3.2.4,59.68986993453983,
blocks/block_35.csv,sárfolt,35,left,0,34,34,34,0,1,1,7,,,179.24302661197726,None,left,1,1.152826607984025,179.24302661197726,None,,,01,timike,2020_May_19_2107,lukacsagi_lexdec,3.2.4,59.68986993453983,
blocks/block_35.csv,,,,0,34,34,34,,,,,,,,,,,,,,,,01,timike,2020_May_19_2107,lukacsagi_lexdec,3.2.4,59.68986993453983,
blocks/block_36.csv,merítőkanál,36,left,0,35,35,35,0,0,0,15,,,181.12728330498794,None,left,1,1.3085468240315095,181.12728330498794,None,,,01,timike,2020_May_19_2107,lukacsagi_lexdec,3.2.4,59.68986993453983,
blocks/block_36.csv,védlevél,36,left,0,35,35,35,0,1,1,1,,,182.94599351700163,None,right,0,2.273841561982408,182.94599351700163,None,,,01,timike,2020_May_19_2107,lukacsagi_lexdec,3.2.4,59.68986993453983,
blocks/block_36.csv,komporázi,36,right,0,35,35,35,0,2,2,2,,,185.73033243202372,None,right,1,1.9535229959874414,185.73033243202372,None,,,01,timike,2020_May_19_2107,lukacsagi_lexdec,3.2.4,59.68986993453983,
blocks/block_36.csv,,,,0,35,35,35,,,,,,,,,,,,,,,,01,timike,2020_May_19_2107,lukacsagi_lexdec,3.2.4,59.68986993453983,
blocks/block_37.csv,cselens,37,right,0,36,36,36,0,0,0,21,,,188.41645375598455,None,right,1,1.4113769929972477,188.41645375598455,None,,,01,timike,2020_May_19_2107,lukacsagi_lexdec,3.2.4,59.68986993453983,
blocks/block_37.csv,dobbant,37,left,0,36,36,36,0,1,1,0,,,190.3335114630172,None,left,1,0.9342650739708915,190.3335114630172,None,,,01,timike,2020_May_19_2107,lukacsagi_lexdec,3.2.4,59.68986993453983,
blocks/block_37.csv,,,,0,36,36,36,,,,,,,,,,,,,,,,01,timike,2020_May_19_2107,lukacsagi_lexdec,3.2.4,59.68986993453983,
blocks/block_38.csv,ízesedik,38,left,0,37,37,37,0,0,0,4,,,192.05105947196716,None,left,1,1.8167612639954314,192.05105947196716,None,,,01,timike,2020_May_19_2107,lukacsagi_lexdec,3.2.4,59.68986993453983,
blocks/block_38.csv,bűvkör,38,left,0,37,37,37,0,1,1,13,,,194.37010605400428,None,left,1,2.5137373540201224,194.37010605400428,None,,,01,timike,2020_May_19_2107,lukacsagi_lexdec,3.2.4,59.68986993453983,
blocks/block_38.csv,,,,0,37,37,37,,,,,,,,,,,,,,,,01,timike,2020_May_19_2107,lukacsagi_lexdec,3.2.4,59.68986993453983,
blocks/block_39.csv,hazardíroz,39,left,0,38,38,38,0,0,0,18,,,197.62135576701257,None,left,1,2.7824259659973904,197.62135576701257,None,,,01,timike,2020_May_19_2107,lukacsagi_lexdec,3.2.4,59.68986993453983,
blocks/block_39.csv,nomináljövedelem,39,left,0,38,38,38,0,1,1,21,,,200.90729502699105,None,right,0,3.392534520011395,200.90729502699105,None,,,01,timike,2020_May_19_2107,lukacsagi_lexdec,3.2.4,59.68986993453983,
blocks/block_39.csv,oikosz,39,left,0,38,38,38,0,2,2,9,,,204.8104561989894,None,left,1,2.617399385024328,204.8104561989894,None,,,01,timike,2020_May_19_2107,lukacsagi_lexdec,3.2.4,59.68986993453983,
blocks/block_39.csv,,,,0,38,38,38,,,,,,,,,,,,,,,,01,timike,2020_May_19_2107,lukacsagi_lexdec,3.2.4,59.68986993453983,
blocks/block_40.csv,fenőszíj,40,left,0,39,39,39,0,0,0,13,,,208.1467386870063,None,left,1,1.593092572002206,208.1467386870063,None,,,01,timike,2020_May_19_2107,lukacsagi_lexdec,3.2.4,59.68986993453983,
blocks/block_40.csv,törzskönyvez,40,left,0,39,39,39,0,1,1,3,,,210.24729593802476,None,left,1,2.2045883639948443,210.24729593802476,None,,,01,timike,2020_May_19_2107,lukacsagi_lexdec,3.2.4,59.68986993453983,
blocks/block_40.csv,,,,0,39,39,39,,,,,,,,,,,,,,,,01,timike,2020_May_19_2107,lukacsagi_lexdec,3.2.4,59.68986993453983,
blocks/block_41.csv,csatkó,41,right,0,40,40,40,0,0,0,3,,,213.2333916290081,None,right,1,1.0424372460111044,213.2333916290081,None,,,01,timike,2020_May_19_2107,lukacsagi_lexdec,3.2.4,59.68986993453983,
blocks/block_41.csv,klozettpapír,41,left,0,40,40,40,0,1,1,16,,,214.78377098497003,None,left,1,1.2440620249835774,214.78377098497003,None,,,01,timike,2020_May_19_2107,lukacsagi_lexdec,3.2.4,59.68986993453983,
blocks/block_41.csv,,,,0,40,40,40,,,,,,,,,,,,,,,,01,timike,2020_May_19_2107,lukacsagi_lexdec,3.2.4,59.68986993453983,
blocks/block_42.csv,kékít,42,left,0,41,41,41,0,0,0,14,,,216.76808390498627,None,left,1,0.8037313470267691,216.76808390498627,None,,,01,timike,2020_May_19_2107,lukacsagi_lexdec,3.2.4,59.68986993453983,
blocks/block_42.csv,dölyfösködik,42,left,0,41,41,41,0,1,1,3,,,218.08667430200148,None,left,1,0.7891535770031624,218.08667430200148,None,,,01,timike,2020_May_19_2107,lukacsagi_lexdec,3.2.4,59.68986993453983,
blocks/block_42.csv,,,,0,41,41,41,,,,,,,,,,,,,,,,01,timike,2020_May_19_2107,lukacsagi_lexdec,3.2.4,59.68986993453983,
blocks/block_43.csv,invonult,43,right,0,42,42,42,0,0,0,15,,,219.63752027298324,None,right,1,1.4703355859965086,219.63752027298324,None,,,01,timike,2020_May_19_2107,lukacsagi_lexdec,3.2.4,59.68986993453983,
blocks/block_43.csv,némezés,43,right,0,42,42,42,0,1,1,7,,,221.62125362997176,None,right,1,2.118575797008816,221.62125362997176,None,,,01,timike,2020_May_19_2107,lukacsagi_lexdec,3.2.4,59.68986993453983,
blocks/block_43.csv,,,,0,42,42,42,,,,,,,,,,,,,,,,01,timike,2020_May_19_2107,lukacsagi_lexdec,3.2.4,59.68986993453983,
blocks/block_44.csv,dévánkozik,44,left,0,43,43,43,0,0,0,23,,,224.52431769797113,None,right,0,1.8474484130274504,224.52431769797113,None,,,01,timike,2020_May_19_2107,lukacsagi_lexdec,3.2.4,59.68986993453983,
blocks/block_44.csv,hérósz,44,left,0,43,43,43,0,1,1,0,,,226.8747896879795,None,right,0,1.6650872220052406,226.8747896879795,None,,,01,timike,2020_May_19_2107,lukacsagi_lexdec,3.2.4,59.68986993453983,
blocks/block_44.csv,kollektivizál,44,left,0,43,43,43,0,2,2,1,,,229.04382914700545,None,left,1,1.1600021990016103,229.04382914700545,None,,,01,timike,2020_May_19_2107,lukacsagi_lexdec,3.2.4,59.68986993453983,
blocks/block_44.csv,hajcsárkodik,44,left,0,43,43,43,0,3,3,17,,,230.71115207398543,None,left,1,1.508682209008839,230.71115207398543,None,,,01,timike,2020_May_19_2107,lukacsagi_lexdec,3.2.4,59.68986993453983,
blocks/block_44.csv,,,,0,43,43,43,,,,,,,,,,,,,,,,01,timike,2020_May_19_2107,lukacsagi_lexdec,3.2.4,59.68986993453983,
blocks/block_45.csv,szlalomoz,45,left,0,44,44,44,0,0,0,21,,,232.98053341096966,None,left,1,1.6633035659906454,232.98053341096966,None,,,01,timike,2020_May_19_2107,lukacsagi_lexdec,3.2.4,59.68986993453983,
blocks/block_45.csv,hosszall,45,left,0,44,44,44,0,1,1,14,,,235.14765806298237,None,right,0,1.888171667989809,235.14765806298237,None,,,01,timike,2020_May_19_2107,lukacsagi_lexdec,3.2.4,59.68986993453983,
blocks/block_45.csv,móringol,45,left,0,44,44,44,0,2,2,22,,,237.54849835700588,None,right,0,2.2153075499809347,237.54849835700588,None,,,01,timike,2020_May_19_2107,lukacsagi_lexdec,3.2.4,59.68986993453983,
blocks/block_45.csv,lexikológus,45,left,0,44,44,44,0,3,3,6,,,240.26780249999138,None,right,0,1.9519821190042421,240.26780249999138,None,,,01,timike,2020_May_19_2107,lukacsagi_lexdec,3.2.4,59.68986993453983,
blocks/block_45.csv,,,,0,44,44,44,,,,,,,,,,,,,,,,01,timike,2020_May_19_2107,lukacsagi_lexdec,3.2.4,59.68986993453983,
blocks/block_46.csv,impúrum,46,left,0,45,45,45,0,0,0,21,,,243.03742951201275,None,right,0,1.5023992829956114,243.03742951201275,None,,,01,timike,2020_May_19_2107,lukacsagi_lexdec,3.2.4,59.68986993453983,
blocks/block_46.csv,könnyirepp,46,right,0,45,45,45,0,1,1,4,,,245.05450049700448,None,right,1,1.7652453419868834,245.05450049700448,None,,,01,timike,2020_May_19_2107,lukacsagi_lexdec,3.2.4,59.68986993453983,
blocks/block_46.csv,jóltart,46,left,0,45,45,45,0,2,2,11,,,247.3219658859889,None,left,1,1.6098766950308345,247.3219658859889,None,,,01,timike,2020_May_19_2107,lukacsagi_lexdec,3.2.4,59.68986993453983,
blocks/block_46.csv,,,,0,45,45,45,,,,,,,,,,,,,,,,01,timike,2020_May_19_2107,lukacsagi_lexdec,3.2.4,59.68986993453983,
blocks/block_47.csv,rámáz,47,left,0,46,46,46,0,0,0,22,,,249.72481097397394,None,left,1,1.4790233310195617,249.72481097397394,None,,,01,timike,2020_May_19_2107,lukacsagi_lexdec,3.2.4,59.68986993453983,
blocks/block_47.csv,csapdáz,47,left,0,46,46,46,0,1,1,1,,,251.70856345799984,None,left,1,1.2632721530389972,251.70856345799984,None,,,01,timike,2020_May_19_2107,lukacsagi_lexdec,3.2.4,59.68986993453983,
blocks/block_47.csv,,,,0,46,46,46,,,,,,,,,,,,,,,,01,timike,2020_May_19_2107,lukacsagi_lexdec,3.2.4,59.68986993453983,
blocks/block_48.csv,nemesbít,48,left,0,47,47,47,0,0,0,13,,,253.76106039300794,None,left,1,1.4907648549997248,253.76106039300794,None,,,01,timike,2020_May_19_2107,lukacsagi_lexdec,3.2.4,59.68986993453983,
blocks/block_48.csv,különszakasz,48,left,0,47,47,47,0,1,1,8,,,255.76223535597092,None,left,1,1.8495953879901208,255.76223535597092,None,,,01,timike,2020_May_19_2107,lukacsagi_lexdec,3.2.4,59.68986993453983,
blocks/block_48.csv,,,,0,47,47,47,,,,,,,,,,,,,,,,01,timike,2020_May_19_2107,lukacsagi_lexdec,3.2.4,59.68986993453983,
blocks/block_49.csv,kvártélyoz,49,left,0,48,48,48,0,0,0,4,,,258.43100845400477,None,left,1,1.4528231000294909,258.43100845400477,None,,,01,timike,2020_May_19_2107,lukacsagi_lexdec,3.2.4,59.68986993453983,
blocks/block_49.csv,lező,49,right,0,48,48,48,0,1,1,6,,,260.3982466669986,None,right,1,1.0455811790307052,260.3982466669986,None,,,01,timike,2020_May_19_2107,lukacsagi_lexdec,3.2.4,59.68986993453983,
blocks/block_49.csv,,,,0,48,48,48,,,,,,,,,,,,,,,,01,timike,2020_May_19_2107,lukacsagi_lexdec,3.2.4,59.68986993453983,
blocks/block_50.csv,kopol,50,right,0,49,49,49,0,0,0,17,,,262.23240939097013,None,right,1,1.4914129670360126,262.23240939097013,None,,,01,timike,2020_May_19_2107,lukacsagi_lexdec,3.2.4,59.68986993453983,
blocks/block_50.csv,degusztál,50,left,0,49,49,49,0,1,1,11,,,264.2346674199798,None,left,1,1.2491623879759572,264.2346674199798,None,,,01,timike,2020_May_19_2107,lukacsagi_lexdec,3.2.4,59.68986993453983,
blocks/block_50.csv,,,,0,49,49,49,,,,,,,,,,,,,,,,01,timike,2020_May_19_2107,lukacsagi_lexdec,3.2.4,59.68986993453983,
,,,,,,,,,,,,,,,,,,,,,266.08546662400477,None,,,,,,,
